workerid,is_practice,ask,type,correct,rt,left,right,response,trial_index
265,practice,small,congruent,TRUE,1748,Big-visBig/22_26.jpg,Small-visSmall/06_43.jpg,m,4
265,practice,small,incongruent,TRUE,845,Big-visSmall/11_40.jpg,Small-visBig/01_78.jpg,c,7
265,practice,small,incongruent,TRUE,901,Big-visSmall/30_20.jpg,Small-visBig/22_65.jpg,c,10
265,practice,small,congruent,TRUE,701,Big-visBig/23_16.jpg,Small-visSmall/16_73.jpg,m,13
265,practice,small,congruent,TRUE,698,Small-visSmall/11_71.jpg,Big-visBig/01_07.jpg,c,16
265,practice,big,congruent,TRUE,882,Small-visSmall/24_61.jpg,Big-visBig/13_19.jpg,m,20
265,practice,big,congruent,TRUE,534,Big-visBig/26_32.jpg,Small-visSmall/28_47.jpg,c,23
265,practice,big,incongruent,TRUE,565,Small-visBig/10_59.jpg,Big-visSmall/29_03.jpg,c,26
265,practice,big,incongruent,TRUE,891,Big-visSmall/25_10.jpg,Small-visBig/05_54.jpg,m,29
265,practice,big,incongruent,TRUE,807,Small-visBig/25_56.jpg,Big-visSmall/06_02.jpg,c,32
265,critical,small,incongruent,TRUE,929,Small-visBig/17_80.jpg,Big-visSmall/17_21.jpg,m,37
265,critical,small,congruent,TRUE,729,Big-visBig/06_02.jpg,Small-visSmall/06_43.jpg,m,40
265,critical,small,incongruent,TRUE,917,Small-visBig/23_70.jpg,Big-visSmall/23_16.jpg,m,43
265,critical,small,congruent,TRUE,585,Small-visSmall/30_50.jpg,Big-visBig/30_20.jpg,c,46
265,critical,small,congruent,TRUE,896,Big-visBig/29_03.jpg,Small-visSmall/29_69.jpg,m,49
265,critical,small,incongruent,TRUE,835,Small-visBig/24_61.jpg,Big-visSmall/24_06.jpg,m,52
265,critical,small,congruent,TRUE,536,Small-visSmall/24_61.jpg,Big-visBig/24_06.jpg,c,55
265,critical,small,incongruent,TRUE,547,Big-visSmall/14_34.jpg,Small-visBig/14_67.jpg,c,58
265,critical,small,incongruent,TRUE,1066,Small-visBig/20_79.jpg,Big-visSmall/20_38.jpg,m,61
265,critical,small,congruent,TRUE,587,Small-visSmall/11_71.jpg,Big-visBig/11_40.jpg,c,64
265,critical,small,incongruent,TRUE,571,Small-visBig/21_52.jpg,Big-visSmall/21_31.jpg,m,67
265,critical,small,incongruent,TRUE,496,Big-visSmall/06_02.jpg,Small-visBig/06_43.jpg,c,70
265,critical,small,congruent,TRUE,715,Big-visBig/12_13.jpg,Small-visSmall/12_58.jpg,m,73
265,critical,small,incongruent,TRUE,636,Big-visSmall/07_33.jpg,Small-visBig/07_51.jpg,c,76
265,critical,small,incongruent,TRUE,1012,Big-visSmall/18_23.jpg,Small-visBig/18_76.jpg,c,79
265,critical,small,incongruent,TRUE,617,Big-visSmall/17_21.jpg,Small-visBig/17_80.jpg,c,82
265,critical,small,congruent,TRUE,587,Small-visSmall/13_77.jpg,Big-visBig/13_19.jpg,c,85
265,critical,small,incongruent,TRUE,29,Big-visSmall/02_08.jpg,Small-visBig/02_44.jpg,c,88
265,critical,small,incongruent,TRUE,621,Big-visSmall/12_13.jpg,Small-visBig/12_58.jpg,c,91
265,critical,small,congruent,TRUE,581,Big-visBig/01_07.jpg,Small-visSmall/01_78.jpg,m,94
265,critical,small,congruent,TRUE,515,Small-visSmall/29_69.jpg,Big-visBig/29_03.jpg,c,97
265,critical,small,incongruent,TRUE,714,Small-visBig/18_76.jpg,Big-visSmall/18_23.jpg,m,100
265,critical,small,congruent,TRUE,638,Big-visBig/22_26.jpg,Small-visSmall/22_65.jpg,m,103
265,critical,small,incongruent,TRUE,4532,Small-visBig/26_42.jpg,Big-visSmall/26_32.jpg,m,106
265,critical,small,congruent,TRUE,3693,Big-visBig/14_34.jpg,Small-visSmall/14_67.jpg,m,109
265,critical,small,incongruent,TRUE,1956,Big-visSmall/19_17.jpg,Small-visBig/19_41.jpg,c,112
265,critical,small,incongruent,TRUE,1112,Small-visBig/05_54.jpg,Big-visSmall/05_25.jpg,m,115
265,critical,small,congruent,TRUE,1712,Big-visBig/18_23.jpg,Small-visSmall/18_76.jpg,m,118
265,critical,small,congruent,TRUE,584,Big-visBig/13_19.jpg,Small-visSmall/13_77.jpg,m,121
265,critical,small,incongruent,TRUE,1200,Small-visBig/04_48.jpg,Big-visSmall/04_05.jpg,m,124
265,critical,small,congruent,TRUE,898,Big-visBig/11_40.jpg,Small-visSmall/11_71.jpg,m,127
265,critical,small,congruent,TRUE,933,Big-visBig/04_05.jpg,Small-visSmall/04_48.jpg,m,130
265,critical,small,congruent,TRUE,784,Small-visSmall/23_70.jpg,Big-visBig/23_16.jpg,c,133
265,critical,small,incongruent,TRUE,1794,Small-visBig/25_56.jpg,Big-visSmall/25_10.jpg,m,136
265,critical,small,congruent,TRUE,1034,Small-visSmall/27_63.jpg,Big-visBig/27_18.jpg,c,139
265,critical,small,congruent,TRUE,930,Big-visBig/19_17.jpg,Small-visSmall/19_41.jpg,m,142
265,critical,small,incongruent,TRUE,617,Big-visSmall/29_03.jpg,Small-visBig/29_69.jpg,c,145
265,critical,small,incongruent,TRUE,1098,Small-visBig/06_43.jpg,Big-visSmall/06_02.jpg,m,148
265,critical,small,incongruent,TRUE,615,Big-visSmall/13_19.jpg,Small-visBig/13_77.jpg,c,151
265,critical,small,congruent,TRUE,955,Big-visBig/17_21.jpg,Small-visSmall/17_80.jpg,m,154
265,critical,small,incongruent,FALSE,1081,Small-visBig/22_65.jpg,Big-visSmall/22_26.jpg,c,157
265,critical,small,congruent,TRUE,1097,Small-visSmall/01_78.jpg,Big-visBig/01_07.jpg,c,160
265,critical,small,incongruent,TRUE,1068,Small-visBig/15_72.jpg,Big-visSmall/15_29.jpg,m,163
265,critical,small,congruent,TRUE,892,Big-visBig/20_38.jpg,Small-visSmall/20_79.jpg,m,166
265,critical,small,incongruent,TRUE,901,Big-visSmall/04_05.jpg,Small-visBig/04_48.jpg,c,169
265,critical,small,incongruent,TRUE,886,Big-visSmall/25_10.jpg,Small-visBig/25_56.jpg,c,172
265,critical,small,incongruent,TRUE,2902,Big-visSmall/21_31.jpg,Small-visBig/21_52.jpg,c,175
265,critical,small,incongruent,TRUE,898,Big-visSmall/26_32.jpg,Small-visBig/26_42.jpg,c,178
265,critical,small,congruent,TRUE,806,Big-visBig/07_33.jpg,Small-visSmall/07_51.jpg,m,181
265,critical,small,congruent,TRUE,1082,Big-visBig/28_12.jpg,Small-visSmall/28_47.jpg,m,184
265,critical,small,congruent,TRUE,1159,Small-visSmall/19_41.jpg,Big-visBig/19_17.jpg,c,187
265,critical,small,congruent,TRUE,918,Big-visBig/26_32.jpg,Small-visSmall/26_42.jpg,m,190
265,critical,small,congruent,TRUE,1331,Small-visSmall/17_80.jpg,Big-visBig/17_21.jpg,c,193
265,critical,small,congruent,TRUE,1927,Big-visBig/15_29.jpg,Small-visSmall/15_72.jpg,m,196
265,critical,small,incongruent,TRUE,1246,Small-visBig/29_69.jpg,Big-visSmall/29_03.jpg,m,199
265,critical,small,congruent,TRUE,824,Small-visSmall/12_58.jpg,Big-visBig/12_13.jpg,c,202
265,critical,small,congruent,TRUE,776,Small-visSmall/10_59.jpg,Big-visBig/10_09.jpg,c,205
265,critical,small,incongruent,TRUE,1040,Big-visSmall/10_09.jpg,Small-visBig/10_59.jpg,c,208
265,critical,small,congruent,TRUE,884,Small-visSmall/26_42.jpg,Big-visBig/26_32.jpg,c,211
265,critical,small,congruent,TRUE,1170,Small-visSmall/03_57.jpg,Big-visBig/03_36.jpg,c,214
265,critical,small,congruent,TRUE,677,Small-visSmall/06_43.jpg,Big-visBig/06_02.jpg,c,217
265,critical,small,incongruent,TRUE,737,Small-visBig/11_71.jpg,Big-visSmall/11_40.jpg,m,220
265,critical,small,incongruent,TRUE,826,Big-visSmall/24_06.jpg,Small-visBig/24_61.jpg,c,223
265,critical,small,incongruent,TRUE,1842,Big-visSmall/27_18.jpg,Small-visBig/27_63.jpg,c,226
265,critical,small,incongruent,TRUE,946,Small-visBig/03_57.jpg,Big-visSmall/03_36.jpg,m,229
265,critical,small,incongruent,TRUE,635,Small-visBig/02_44.jpg,Big-visSmall/02_08.jpg,m,232
265,critical,small,incongruent,TRUE,802,Small-visBig/13_77.jpg,Big-visSmall/13_19.jpg,m,235
265,critical,small,congruent,TRUE,859,Small-visSmall/15_72.jpg,Big-visBig/15_29.jpg,c,238
265,critical,small,congruent,TRUE,867,Big-visBig/08_35.jpg,Small-visSmall/08_45.jpg,m,241
265,critical,small,congruent,TRUE,556,Big-visBig/24_06.jpg,Small-visSmall/24_61.jpg,m,244
265,critical,small,incongruent,TRUE,747,Big-visSmall/11_40.jpg,Small-visBig/11_71.jpg,c,247
265,critical,small,congruent,TRUE,624,Big-visBig/27_18.jpg,Small-visSmall/27_63.jpg,m,250
265,critical,small,incongruent,TRUE,787,Small-visBig/12_58.jpg,Big-visSmall/12_13.jpg,m,253
265,critical,small,congruent,TRUE,1603,Small-visSmall/07_51.jpg,Big-visBig/07_33.jpg,c,256
265,critical,small,incongruent,TRUE,972,Big-visSmall/08_35.jpg,Small-visBig/08_45.jpg,c,259
265,critical,small,incongruent,TRUE,761,Big-visSmall/15_29.jpg,Small-visBig/15_72.jpg,c,262
265,critical,small,congruent,TRUE,805,Small-visSmall/02_44.jpg,Big-visBig/02_08.jpg,c,265
265,critical,small,congruent,TRUE,1100,Big-visBig/03_36.jpg,Small-visSmall/03_57.jpg,m,268
265,critical,small,incongruent,TRUE,842,Small-visBig/19_41.jpg,Big-visSmall/19_17.jpg,m,271
265,critical,small,incongruent,TRUE,930,Small-visBig/30_50.jpg,Big-visSmall/30_20.jpg,m,274
265,critical,small,incongruent,TRUE,630,Big-visSmall/20_38.jpg,Small-visBig/20_79.jpg,c,277
265,critical,small,incongruent,TRUE,998,Big-visSmall/03_36.jpg,Small-visBig/03_57.jpg,c,280
265,critical,small,incongruent,TRUE,884,Big-visSmall/09_15.jpg,Small-visBig/09_64.jpg,c,283
265,critical,small,congruent,TRUE,1053,Big-visBig/02_08.jpg,Small-visSmall/02_44.jpg,m,286
265,critical,small,incongruent,TRUE,935,Big-visSmall/05_25.jpg,Small-visBig/05_54.jpg,c,289
265,critical,small,incongruent,TRUE,1147,Small-visBig/27_63.jpg,Big-visSmall/27_18.jpg,m,292
265,critical,small,congruent,TRUE,1583,Big-visBig/09_15.jpg,Small-visSmall/09_64.jpg,m,295
265,critical,small,congruent,TRUE,1232,Big-visBig/05_25.jpg,Small-visSmall/05_54.jpg,m,298
265,critical,small,congruent,TRUE,636,Small-visSmall/25_56.jpg,Big-visBig/25_10.jpg,c,301
265,critical,small,incongruent,TRUE,1351,Small-visBig/28_47.jpg,Big-visSmall/28_12.jpg,m,304
265,critical,small,congruent,TRUE,808,Small-visSmall/18_76.jpg,Big-visBig/18_23.jpg,c,307
265,critical,small,congruent,TRUE,576,Big-visBig/23_16.jpg,Small-visSmall/23_70.jpg,m,310
265,critical,small,incongruent,TRUE,1165,Big-visSmall/28_12.jpg,Small-visBig/28_47.jpg,c,313
265,critical,small,congruent,TRUE,712,Small-visSmall/08_45.jpg,Big-visBig/08_35.jpg,c,316
265,critical,small,congruent,TRUE,871,Small-visSmall/22_65.jpg,Big-visBig/22_26.jpg,c,319
265,critical,small,congruent,TRUE,586,Small-visSmall/21_52.jpg,Big-visBig/21_31.jpg,c,322
265,critical,small,congruent,TRUE,682,Big-visBig/30_20.jpg,Small-visSmall/30_50.jpg,m,325
265,critical,small,incongruent,TRUE,941,Big-visSmall/23_16.jpg,Small-visBig/23_70.jpg,c,328
265,critical,small,congruent,TRUE,4130,Big-visBig/25_10.jpg,Small-visSmall/25_56.jpg,m,331
265,critical,small,incongruent,TRUE,672,Small-visBig/07_51.jpg,Big-visSmall/07_33.jpg,m,334
265,critical,small,congruent,TRUE,826,Small-visSmall/20_79.jpg,Big-visBig/20_38.jpg,c,337
265,critical,small,congruent,TRUE,698,Big-visBig/21_31.jpg,Small-visSmall/21_52.jpg,m,340
265,critical,small,incongruent,TRUE,792,Big-visSmall/22_26.jpg,Small-visBig/22_65.jpg,c,343
265,critical,small,congruent,TRUE,568,Big-visBig/10_09.jpg,Small-visSmall/10_59.jpg,m,346
265,critical,small,incongruent,TRUE,515,Small-visBig/14_67.jpg,Big-visSmall/14_34.jpg,m,349
265,critical,small,congruent,TRUE,1449,Small-visSmall/28_47.jpg,Big-visBig/28_12.jpg,c,352
265,critical,small,incongruent,TRUE,1776,Small-visBig/08_45.jpg,Big-visSmall/08_35.jpg,m,355
265,critical,small,congruent,TRUE,774,Small-visSmall/14_67.jpg,Big-visBig/14_34.jpg,c,358
265,critical,small,incongruent,TRUE,1163,Big-visSmall/01_07.jpg,Small-visBig/01_78.jpg,c,361
265,critical,small,congruent,TRUE,674,Small-visSmall/04_48.jpg,Big-visBig/04_05.jpg,c,364
265,critical,small,incongruent,TRUE,1702,Small-visBig/09_64.jpg,Big-visSmall/09_15.jpg,m,367
265,critical,small,incongruent,TRUE,1437,Big-visSmall/16_28.jpg,Small-visBig/16_73.jpg,c,370
265,critical,small,incongruent,TRUE,766,Small-visBig/01_78.jpg,Big-visSmall/01_07.jpg,m,373
265,critical,small,congruent,TRUE,819,Small-visSmall/16_73.jpg,Big-visBig/16_28.jpg,c,376
265,critical,small,incongruent,TRUE,1578,Small-visBig/16_73.jpg,Big-visSmall/16_28.jpg,m,379
265,critical,small,incongruent,FALSE,2268,Big-visSmall/30_20.jpg,Small-visBig/30_50.jpg,m,382
265,critical,small,congruent,TRUE,815,Big-visBig/16_28.jpg,Small-visSmall/16_73.jpg,m,385
265,critical,small,congruent,TRUE,1077,Small-visSmall/05_54.jpg,Big-visBig/05_25.jpg,c,388
265,critical,small,incongruent,TRUE,2784,Small-visBig/10_59.jpg,Big-visSmall/10_09.jpg,m,391
265,critical,small,congruent,TRUE,1496,Small-visSmall/09_64.jpg,Big-visBig/09_15.jpg,c,394
265,critical,big,congruent,TRUE,4851,Big-visBig/13_19.jpg,Small-visSmall/13_77.jpg,c,399
265,critical,big,congruent,FALSE,873,Small-visSmall/13_77.jpg,Big-visBig/13_19.jpg,c,402
265,critical,big,incongruent,TRUE,1125,Big-visSmall/29_03.jpg,Small-visBig/29_69.jpg,m,405
265,critical,big,congruent,TRUE,713,Big-visBig/10_09.jpg,Small-visSmall/10_59.jpg,c,408
265,critical,big,congruent,TRUE,843,Big-visBig/15_29.jpg,Small-visSmall/15_72.jpg,c,411
265,critical,big,congruent,TRUE,610,Big-visBig/30_20.jpg,Small-visSmall/30_50.jpg,c,414
265,critical,big,congruent,TRUE,621,Big-visBig/11_40.jpg,Small-visSmall/11_71.jpg,c,417
265,critical,big,congruent,TRUE,931,Big-visBig/14_34.jpg,Small-visSmall/14_67.jpg,c,420
265,critical,big,incongruent,TRUE,585,Small-visBig/07_51.jpg,Big-visSmall/07_33.jpg,c,423
265,critical,big,congruent,TRUE,670,Small-visSmall/20_79.jpg,Big-visBig/20_38.jpg,m,426
265,critical,big,incongruent,TRUE,982,Big-visSmall/15_29.jpg,Small-visBig/15_72.jpg,m,429
265,critical,big,incongruent,TRUE,995,Big-visSmall/13_19.jpg,Small-visBig/13_77.jpg,m,432
265,critical,big,congruent,TRUE,3317,Small-visSmall/09_64.jpg,Big-visBig/09_15.jpg,m,435
265,critical,big,congruent,TRUE,1007,Small-visSmall/30_50.jpg,Big-visBig/30_20.jpg,m,438
265,critical,big,incongruent,TRUE,807,Big-visSmall/08_35.jpg,Small-visBig/08_45.jpg,m,441
265,critical,big,congruent,TRUE,735,Big-visBig/25_10.jpg,Small-visSmall/25_56.jpg,c,444
265,critical,big,incongruent,TRUE,887,Big-visSmall/23_16.jpg,Small-visBig/23_70.jpg,m,447
265,critical,big,incongruent,TRUE,1600,Big-visSmall/27_18.jpg,Small-visBig/27_63.jpg,m,450
265,critical,big,incongruent,TRUE,1401,Big-visSmall/30_20.jpg,Small-visBig/30_50.jpg,m,453
265,critical,big,incongruent,TRUE,977,Big-visSmall/19_17.jpg,Small-visBig/19_41.jpg,m,456
265,critical,big,incongruent,TRUE,1005,Big-visSmall/07_33.jpg,Small-visBig/07_51.jpg,m,459
265,critical,big,incongruent,TRUE,1273,Small-visBig/11_71.jpg,Big-visSmall/11_40.jpg,c,462
265,critical,big,congruent,TRUE,840,Big-visBig/03_36.jpg,Small-visSmall/03_57.jpg,c,465
265,critical,big,congruent,TRUE,730,Big-visBig/24_06.jpg,Small-visSmall/24_61.jpg,c,468
265,critical,big,congruent,TRUE,1105,Big-visBig/06_02.jpg,Small-visSmall/06_43.jpg,c,471
265,critical,big,incongruent,TRUE,4443,Small-visBig/10_59.jpg,Big-visSmall/10_09.jpg,c,474
265,critical,big,incongruent,TRUE,1882,Big-visSmall/11_40.jpg,Small-visBig/11_71.jpg,m,477
265,critical,big,congruent,TRUE,1783,Big-visBig/20_38.jpg,Small-visSmall/20_79.jpg,c,480
265,critical,big,congruent,TRUE,1427,Small-visSmall/03_57.jpg,Big-visBig/03_36.jpg,m,483
265,critical,big,incongruent,TRUE,971,Big-visSmall/17_21.jpg,Small-visBig/17_80.jpg,m,486
265,critical,big,congruent,TRUE,780,Small-visSmall/18_76.jpg,Big-visBig/18_23.jpg,m,489
265,critical,big,congruent,TRUE,997,Big-visBig/21_31.jpg,Small-visSmall/21_52.jpg,c,492
265,critical,big,congruent,TRUE,899,Small-visSmall/14_67.jpg,Big-visBig/14_34.jpg,m,495
265,critical,big,congruent,TRUE,612,Big-visBig/09_15.jpg,Small-visSmall/09_64.jpg,c,498
265,critical,big,incongruent,TRUE,973,Small-visBig/03_57.jpg,Big-visSmall/03_36.jpg,c,501
265,critical,big,incongruent,TRUE,604,Small-visBig/19_41.jpg,Big-visSmall/19_17.jpg,c,504
265,critical,big,incongruent,TRUE,2781,Big-visSmall/20_38.jpg,Small-visBig/20_79.jpg,m,507
265,critical,big,congruent,TRUE,651,Big-visBig/01_07.jpg,Small-visSmall/01_78.jpg,c,510
265,critical,big,incongruent,TRUE,1053,Small-visBig/29_69.jpg,Big-visSmall/29_03.jpg,c,513
265,critical,big,congruent,TRUE,1222,Small-visSmall/04_48.jpg,Big-visBig/04_05.jpg,m,516
265,critical,big,incongruent,TRUE,887,Small-visBig/04_48.jpg,Big-visSmall/04_05.jpg,c,519
265,critical,big,congruent,TRUE,1391,Big-visBig/05_25.jpg,Small-visSmall/05_54.jpg,c,522
265,critical,big,incongruent,TRUE,1070,Big-visSmall/09_15.jpg,Small-visBig/09_64.jpg,m,525
265,critical,big,congruent,TRUE,4876,Small-visSmall/28_47.jpg,Big-visBig/28_12.jpg,m,528
265,critical,big,incongruent,TRUE,1375,Small-visBig/06_43.jpg,Big-visSmall/06_02.jpg,c,531
265,critical,big,incongruent,TRUE,1732,Big-visSmall/25_10.jpg,Small-visBig/25_56.jpg,m,534
265,critical,big,congruent,TRUE,2533,Small-visSmall/27_63.jpg,Big-visBig/27_18.jpg,m,537
265,critical,big,congruent,TRUE,6930,Small-visSmall/12_58.jpg,Big-visBig/12_13.jpg,m,540
265,critical,big,incongruent,TRUE,937,Small-visBig/08_45.jpg,Big-visSmall/08_35.jpg,c,543
265,critical,big,congruent,TRUE,960,Small-visSmall/05_54.jpg,Big-visBig/05_25.jpg,m,546
265,critical,big,incongruent,TRUE,690,Big-visSmall/04_05.jpg,Small-visBig/04_48.jpg,m,549
265,critical,big,congruent,TRUE,879,Small-visSmall/08_45.jpg,Big-visBig/08_35.jpg,m,552
265,critical,big,incongruent,TRUE,1123,Small-visBig/24_61.jpg,Big-visSmall/24_06.jpg,c,555
265,critical,big,congruent,TRUE,12897,Big-visBig/22_26.jpg,Small-visSmall/22_65.jpg,c,558
265,critical,big,incongruent,TRUE,1048,Small-visBig/25_56.jpg,Big-visSmall/25_10.jpg,c,561
265,critical,big,congruent,TRUE,1042,Small-visSmall/21_52.jpg,Big-visBig/21_31.jpg,m,564
265,critical,big,congruent,TRUE,1654,Small-visSmall/22_65.jpg,Big-visBig/22_26.jpg,m,567
265,critical,big,congruent,TRUE,1154,Small-visSmall/29_69.jpg,Big-visBig/29_03.jpg,m,570
265,critical,big,congruent,TRUE,8890,Small-visSmall/01_78.jpg,Big-visBig/01_07.jpg,m,573
265,critical,big,congruent,TRUE,910,Big-visBig/23_16.jpg,Small-visSmall/23_70.jpg,c,576
265,critical,big,incongruent,TRUE,740,Small-visBig/02_44.jpg,Big-visSmall/02_08.jpg,c,579
265,critical,big,congruent,TRUE,579,Big-visBig/07_33.jpg,Small-visSmall/07_51.jpg,c,582
265,critical,big,congruent,TRUE,951,Big-visBig/12_13.jpg,Small-visSmall/12_58.jpg,c,585
265,critical,big,incongruent,TRUE,1039,Big-visSmall/22_26.jpg,Small-visBig/22_65.jpg,m,588
265,critical,big,incongruent,TRUE,5493,Big-visSmall/28_12.jpg,Small-visBig/28_47.jpg,m,591
265,critical,big,incongruent,TRUE,2272,Big-visSmall/12_13.jpg,Small-visBig/12_58.jpg,m,594
265,critical,big,incongruent,TRUE,1173,Big-visSmall/10_09.jpg,Small-visBig/10_59.jpg,m,597
265,critical,big,incongruent,TRUE,985,Big-visSmall/03_36.jpg,Small-visBig/03_57.jpg,m,600
265,critical,big,incongruent,TRUE,2094,Big-visSmall/16_28.jpg,Small-visBig/16_73.jpg,m,603
265,critical,big,incongruent,TRUE,728,Small-visBig/14_67.jpg,Big-visSmall/14_34.jpg,c,606
265,critical,big,congruent,TRUE,3377,Big-visBig/04_05.jpg,Small-visSmall/04_48.jpg,c,609
265,critical,big,congruent,TRUE,1335,Small-visSmall/02_44.jpg,Big-visBig/02_08.jpg,m,612
265,critical,big,incongruent,TRUE,2171,Big-visSmall/21_31.jpg,Small-visBig/21_52.jpg,m,615
265,critical,big,incongruent,TRUE,1306,Big-visSmall/02_08.jpg,Small-visBig/02_44.jpg,m,618
265,critical,big,incongruent,TRUE,874,Big-visSmall/01_07.jpg,Small-visBig/01_78.jpg,m,621
265,critical,big,incongruent,TRUE,1155,Small-visBig/26_42.jpg,Big-visSmall/26_32.jpg,c,624
265,critical,big,congruent,TRUE,564,Small-visSmall/10_59.jpg,Big-visBig/10_09.jpg,m,627
265,critical,big,incongruent,TRUE,788,Small-visBig/20_79.jpg,Big-visSmall/20_38.jpg,c,630
265,critical,big,incongruent,TRUE,9601,Small-visBig/12_58.jpg,Big-visSmall/12_13.jpg,c,633
265,critical,big,incongruent,TRUE,899,Big-visSmall/26_32.jpg,Small-visBig/26_42.jpg,m,636
265,critical,big,congruent,TRUE,981,Big-visBig/08_35.jpg,Small-visSmall/08_45.jpg,c,639
265,critical,big,congruent,TRUE,1780,Small-visSmall/11_71.jpg,Big-visBig/11_40.jpg,m,642
265,critical,big,congruent,TRUE,1397,Big-visBig/02_08.jpg,Small-visSmall/02_44.jpg,c,645
265,critical,big,congruent,TRUE,580,Small-visSmall/26_42.jpg,Big-visBig/26_32.jpg,m,648
265,critical,big,congruent,TRUE,701,Small-visSmall/06_43.jpg,Big-visBig/06_02.jpg,m,651
265,critical,big,incongruent,TRUE,927,Big-visSmall/06_02.jpg,Small-visBig/06_43.jpg,m,654
265,critical,big,congruent,TRUE,647,Big-visBig/17_21.jpg,Small-visSmall/17_80.jpg,c,657
265,critical,big,congruent,TRUE,596,Small-visSmall/24_61.jpg,Big-visBig/24_06.jpg,m,660
265,critical,big,congruent,TRUE,492,Big-visBig/19_17.jpg,Small-visSmall/19_41.jpg,c,663
265,critical,big,congruent,TRUE,446,Small-visSmall/19_41.jpg,Big-visBig/19_17.jpg,m,666
265,critical,big,congruent,TRUE,495,Big-visBig/29_03.jpg,Small-visSmall/29_69.jpg,c,669
265,critical,big,congruent,TRUE,924,Big-visBig/26_32.jpg,Small-visSmall/26_42.jpg,c,672
265,critical,big,incongruent,TRUE,580,Big-visSmall/18_23.jpg,Small-visBig/18_76.jpg,m,675
265,critical,big,incongruent,TRUE,856,Big-visSmall/24_06.jpg,Small-visBig/24_61.jpg,m,678
265,critical,big,congruent,TRUE,933,Small-visSmall/07_51.jpg,Big-visBig/07_33.jpg,m,681
265,critical,big,incongruent,TRUE,641,Small-visBig/28_47.jpg,Big-visSmall/28_12.jpg,c,684
265,critical,big,incongruent,TRUE,502,Small-visBig/15_72.jpg,Big-visSmall/15_29.jpg,c,687
265,critical,big,incongruent,TRUE,545,Small-visBig/18_76.jpg,Big-visSmall/18_23.jpg,c,690
265,critical,big,incongruent,TRUE,673,Small-visBig/27_63.jpg,Big-visSmall/27_18.jpg,c,693
265,critical,big,incongruent,TRUE,8232,Small-visBig/30_50.jpg,Big-visSmall/30_20.jpg,c,696
265,critical,big,incongruent,TRUE,570,Big-visSmall/14_34.jpg,Small-visBig/14_67.jpg,m,699
265,critical,big,incongruent,TRUE,561,Small-visBig/16_73.jpg,Big-visSmall/16_28.jpg,c,702
265,critical,big,congruent,TRUE,552,Small-visSmall/17_80.jpg,Big-visBig/17_21.jpg,m,705
265,critical,big,incongruent,TRUE,994,Small-visBig/22_65.jpg,Big-visSmall/22_26.jpg,c,708
265,critical,big,congruent,TRUE,465,Big-visBig/18_23.jpg,Small-visSmall/18_76.jpg,c,711
265,critical,big,incongruent,TRUE,632,Small-visBig/09_64.jpg,Big-visSmall/09_15.jpg,c,714
265,critical,big,congruent,TRUE,516,Big-visBig/16_28.jpg,Small-visSmall/16_73.jpg,c,717
265,critical,big,congruent,TRUE,716,Small-visSmall/16_73.jpg,Big-visBig/16_28.jpg,m,720
265,critical,big,congruent,TRUE,7397,Small-visSmall/25_56.jpg,Big-visBig/25_10.jpg,m,723
265,critical,big,incongruent,TRUE,1716,Small-visBig/13_77.jpg,Big-visSmall/13_19.jpg,c,726
265,critical,big,incongruent,TRUE,4214,Small-visBig/23_70.jpg,Big-visSmall/23_16.jpg,c,729
265,critical,big,congruent,TRUE,667,Big-visBig/27_18.jpg,Small-visSmall/27_63.jpg,c,732
265,critical,big,incongruent,TRUE,711,Small-visBig/01_78.jpg,Big-visSmall/01_07.jpg,c,735
265,critical,big,incongruent,TRUE,598,Big-visSmall/05_25.jpg,Small-visBig/05_54.jpg,m,738
265,critical,big,congruent,TRUE,636,Big-visBig/28_12.jpg,Small-visSmall/28_47.jpg,c,741
265,critical,big,congruent,TRUE,518,Small-visSmall/15_72.jpg,Big-visBig/15_29.jpg,m,744
265,critical,big,congruent,TRUE,800,Small-visSmall/23_70.jpg,Big-visBig/23_16.jpg,m,747
265,critical,big,incongruent,TRUE,623,Small-visBig/21_52.jpg,Big-visSmall/21_31.jpg,c,750
265,critical,big,incongruent,TRUE,516,Small-visBig/05_54.jpg,Big-visSmall/05_25.jpg,c,753
265,critical,big,incongruent,TRUE,503,Small-visBig/17_80.jpg,Big-visSmall/17_21.jpg,c,756
265,critical,small,incongruent,TRUE,963,Big-visSmall/12_13.jpg,Small-visBig/12_58.jpg,c,761
265,critical,small,congruent,TRUE,514,Big-visBig/22_26.jpg,Small-visSmall/06_43.jpg,m,764
265,critical,small,congruent,TRUE,2788,Small-visSmall/13_77.jpg,Big-visBig/18_23.jpg,c,767
265,critical,small,congruent,TRUE,443,Big-visBig/20_38.jpg,Small-visSmall/15_72.jpg,m,770
265,critical,small,incongruent,TRUE,460,Big-visSmall/01_07.jpg,Small-visBig/11_71.jpg,c,773
265,critical,small,congruent,TRUE,436,Big-visBig/06_02.jpg,Small-visSmall/25_56.jpg,m,776
265,critical,small,congruent,TRUE,461,Small-visSmall/15_72.jpg,Big-visBig/20_38.jpg,c,779
265,critical,small,congruent,TRUE,541,Big-visBig/04_05.jpg,Small-visSmall/29_69.jpg,m,782
265,critical,small,congruent,TRUE,494,Small-visSmall/30_50.jpg,Big-visBig/17_21.jpg,c,785
265,critical,small,congruent,TRUE,526,Big-visBig/11_40.jpg,Small-visSmall/01_78.jpg,m,788
265,critical,small,incongruent,TRUE,1005,Small-visBig/02_44.jpg,Big-visSmall/28_12.jpg,m,791
265,critical,small,incongruent,TRUE,781,Small-visBig/12_58.jpg,Big-visSmall/12_13.jpg,m,794
265,critical,small,congruent,TRUE,501,Big-visBig/18_23.jpg,Small-visSmall/13_77.jpg,m,797
265,critical,small,incongruent,TRUE,542,Small-visBig/17_80.jpg,Big-visSmall/05_25.jpg,m,800
265,critical,small,incongruent,TRUE,500,Big-visSmall/29_03.jpg,Small-visBig/10_59.jpg,c,803
265,critical,small,congruent,TRUE,486,Small-visSmall/06_43.jpg,Big-visBig/22_26.jpg,c,806
265,critical,small,incongruent,TRUE,494,Big-visSmall/21_31.jpg,Small-visBig/20_79.jpg,c,809
265,critical,small,incongruent,TRUE,589,Small-visBig/11_71.jpg,Big-visSmall/01_07.jpg,m,812
265,critical,small,congruent,TRUE,606,Big-visBig/28_12.jpg,Small-visSmall/02_44.jpg,m,815
265,critical,small,incongruent,TRUE,429,Small-visBig/07_51.jpg,Big-visSmall/27_18.jpg,m,818
265,critical,small,incongruent,TRUE,511,Small-visBig/04_48.jpg,Big-visSmall/24_06.jpg,m,821
265,critical,small,incongruent,FALSE,843,Small-visBig/29_69.jpg,Big-visSmall/04_05.jpg,c,824
265,critical,small,incongruent,TRUE,532,Big-visSmall/25_10.jpg,Small-visBig/05_54.jpg,c,827
265,critical,small,incongruent,TRUE,824,Big-visSmall/04_05.jpg,Small-visBig/29_69.jpg,c,830
265,critical,small,incongruent,TRUE,640,Small-visBig/13_77.jpg,Big-visSmall/18_23.jpg,m,833
265,critical,small,incongruent,TRUE,604,Big-visSmall/11_40.jpg,Small-visBig/01_78.jpg,c,836
265,critical,small,congruent,TRUE,1225,Small-visSmall/02_44.jpg,Big-visBig/28_12.jpg,c,839
265,critical,small,congruent,TRUE,3641,Small-visSmall/29_69.jpg,Big-visBig/04_05.jpg,c,842
265,critical,small,congruent,TRUE,1513,Big-visBig/19_17.jpg,Small-visSmall/23_70.jpg,m,845
265,critical,small,incongruent,TRUE,2446,Small-visBig/22_65.jpg,Big-visSmall/30_20.jpg,m,848
265,critical,small,congruent,TRUE,666,Big-visBig/27_18.jpg,Small-visSmall/07_51.jpg,m,851
265,critical,small,incongruent,TRUE,743,Small-visBig/16_73.jpg,Big-visSmall/23_16.jpg,m,854
265,critical,small,congruent,TRUE,506,Big-visBig/09_15.jpg,Small-visSmall/26_42.jpg,m,857
265,critical,small,congruent,TRUE,490,Big-visBig/16_28.jpg,Small-visSmall/09_64.jpg,m,860
265,critical,small,incongruent,TRUE,511,Small-visBig/27_63.jpg,Big-visSmall/14_34.jpg,m,863
265,critical,small,incongruent,TRUE,530,Small-visBig/28_47.jpg,Big-visSmall/26_32.jpg,m,866
265,critical,small,congruent,TRUE,535,Small-visSmall/22_65.jpg,Big-visBig/30_20.jpg,c,869
265,critical,small,congruent,TRUE,563,Big-visBig/02_08.jpg,Small-visSmall/03_57.jpg,m,872
265,critical,small,congruent,TRUE,648,Small-visSmall/23_70.jpg,Big-visBig/19_17.jpg,c,875
265,critical,small,congruent,TRUE,508,Small-visSmall/09_64.jpg,Big-visBig/16_28.jpg,c,878
265,critical,small,incongruent,TRUE,1164,Big-visSmall/16_28.jpg,Small-visBig/09_64.jpg,c,881
265,critical,small,incongruent,TRUE,620,Small-visBig/20_79.jpg,Big-visSmall/21_31.jpg,m,884
265,critical,small,incongruent,TRUE,3212,Big-visSmall/15_29.jpg,Small-visBig/21_52.jpg,c,887
265,critical,small,incongruent,TRUE,3110,Big-visSmall/14_34.jpg,Small-visBig/27_63.jpg,c,890
265,critical,small,incongruent,TRUE,868,Big-visSmall/03_36.jpg,Small-visBig/18_76.jpg,c,893
265,critical,small,congruent,TRUE,939,Small-visSmall/05_54.jpg,Big-visBig/25_10.jpg,c,896
265,critical,small,incongruent,TRUE,662,Big-visSmall/17_21.jpg,Small-visBig/30_50.jpg,c,899
265,critical,small,congruent,TRUE,556,Small-visSmall/11_71.jpg,Big-visBig/01_07.jpg,c,902
265,critical,small,incongruent,TRUE,647,Big-visSmall/05_25.jpg,Small-visBig/17_80.jpg,c,905
265,critical,small,incongruent,TRUE,1198,Small-visBig/15_72.jpg,Big-visSmall/20_38.jpg,m,908
265,critical,small,congruent,TRUE,5015,Big-visBig/21_31.jpg,Small-visSmall/20_79.jpg,m,911
265,critical,small,incongruent,TRUE,2312,Small-visBig/25_56.jpg,Big-visSmall/06_02.jpg,m,914
265,critical,small,incongruent,TRUE,2916,Small-visBig/24_61.jpg,Big-visSmall/13_19.jpg,m,917
265,critical,small,congruent,TRUE,974,Small-visSmall/17_80.jpg,Big-visBig/05_25.jpg,c,920
265,critical,small,congruent,TRUE,1095,Big-visBig/05_25.jpg,Small-visSmall/17_80.jpg,m,923
265,critical,small,congruent,TRUE,1152,Big-visBig/13_19.jpg,Small-visSmall/24_61.jpg,m,926
265,critical,small,congruent,TRUE,561,Small-visSmall/14_67.jpg,Big-visBig/10_09.jpg,c,929
265,critical,small,incongruent,TRUE,1450,Small-visBig/21_52.jpg,Big-visSmall/15_29.jpg,m,932
265,critical,small,incongruent,FALSE,766,Small-visBig/08_45.jpg,Big-visSmall/07_33.jpg,c,935
265,critical,small,congruent,TRUE,3778,Big-visBig/10_09.jpg,Small-visSmall/14_67.jpg,m,938
265,critical,small,incongruent,FALSE,571,Small-visBig/19_41.jpg,Big-visSmall/08_35.jpg,c,941
265,critical,small,incongruent,TRUE,636,Small-visBig/23_70.jpg,Big-visSmall/19_17.jpg,m,944
265,critical,small,incongruent,TRUE,857,Big-visSmall/26_32.jpg,Small-visBig/28_47.jpg,c,947
265,critical,small,incongruent,TRUE,679,Big-visSmall/28_12.jpg,Small-visBig/02_44.jpg,c,950
265,critical,small,incongruent,TRUE,1459,Big-visSmall/08_35.jpg,Small-visBig/19_41.jpg,c,953
265,critical,small,congruent,TRUE,852,Small-visSmall/04_48.jpg,Big-visBig/24_06.jpg,c,956
265,critical,small,congruent,TRUE,873,Big-visBig/30_20.jpg,Small-visSmall/22_65.jpg,m,959
265,critical,small,incongruent,TRUE,642,Small-visBig/10_59.jpg,Big-visSmall/29_03.jpg,m,962
265,critical,small,incongruent,TRUE,523,Big-visSmall/24_06.jpg,Small-visBig/04_48.jpg,c,965
265,critical,small,congruent,TRUE,468,Big-visBig/03_36.jpg,Small-visSmall/18_76.jpg,m,968
265,critical,small,congruent,TRUE,900,Small-visSmall/07_51.jpg,Big-visBig/27_18.jpg,c,971
265,critical,small,congruent,TRUE,484,Big-visBig/23_16.jpg,Small-visSmall/16_73.jpg,m,974
265,critical,small,congruent,TRUE,555,Small-visSmall/28_47.jpg,Big-visBig/26_32.jpg,c,977
265,critical,small,congruent,TRUE,523,Small-visSmall/21_52.jpg,Big-visBig/15_29.jpg,c,980
265,critical,small,incongruent,TRUE,962,Small-visBig/18_76.jpg,Big-visSmall/03_36.jpg,m,983
265,critical,small,incongruent,TRUE,755,Small-visBig/09_64.jpg,Big-visSmall/16_28.jpg,m,986
265,critical,small,congruent,TRUE,788,Big-visBig/12_13.jpg,Small-visSmall/12_58.jpg,m,989
265,critical,small,congruent,TRUE,582,Small-visSmall/03_57.jpg,Big-visBig/02_08.jpg,c,992
265,critical,small,congruent,TRUE,1156,Big-visBig/26_32.jpg,Small-visSmall/28_47.jpg,m,995
265,critical,small,congruent,TRUE,878,Big-visBig/15_29.jpg,Small-visSmall/21_52.jpg,m,998
265,critical,small,congruent,TRUE,887,Small-visSmall/19_41.jpg,Big-visBig/08_35.jpg,c,1001
265,critical,small,congruent,TRUE,751,Big-visBig/08_35.jpg,Small-visSmall/19_41.jpg,m,1004
265,critical,small,congruent,TRUE,855,Big-visBig/07_33.jpg,Small-visSmall/08_45.jpg,m,1007
265,critical,small,incongruent,TRUE,1105,Big-visSmall/22_26.jpg,Small-visBig/06_43.jpg,c,1010
265,critical,small,incongruent,TRUE,981,Big-visSmall/09_15.jpg,Small-visBig/26_42.jpg,c,1013
265,critical,small,congruent,TRUE,680,Small-visSmall/10_59.jpg,Big-visBig/29_03.jpg,c,1016
265,critical,small,incongruent,TRUE,745,Small-visBig/26_42.jpg,Big-visSmall/09_15.jpg,m,1019
265,critical,small,incongruent,TRUE,541,Big-visSmall/27_18.jpg,Small-visBig/07_51.jpg,c,1022
265,critical,small,incongruent,TRUE,737,Small-visBig/03_57.jpg,Big-visSmall/02_08.jpg,m,1025
265,critical,small,incongruent,TRUE,921,Big-visSmall/20_38.jpg,Small-visBig/15_72.jpg,c,1028
265,critical,small,incongruent,TRUE,1067,Small-visBig/05_54.jpg,Big-visSmall/25_10.jpg,m,1031
265,critical,small,congruent,TRUE,3975,Small-visSmall/25_56.jpg,Big-visBig/06_02.jpg,c,1034
265,critical,small,incongruent,TRUE,504,Big-visSmall/06_02.jpg,Small-visBig/25_56.jpg,c,1037
265,critical,small,congruent,TRUE,507,Big-visBig/24_06.jpg,Small-visSmall/04_48.jpg,m,1040
265,critical,small,congruent,TRUE,536,Small-visSmall/08_45.jpg,Big-visBig/07_33.jpg,c,1043
265,critical,small,congruent,TRUE,458,Big-visBig/17_21.jpg,Small-visSmall/30_50.jpg,m,1046
265,critical,small,congruent,TRUE,731,Big-visBig/25_10.jpg,Small-visSmall/05_54.jpg,m,1049
265,critical,small,incongruent,TRUE,642,Big-visSmall/07_33.jpg,Small-visBig/08_45.jpg,c,1052
265,critical,small,incongruent,TRUE,599,Small-visBig/14_67.jpg,Big-visSmall/10_09.jpg,m,1055
265,critical,small,incongruent,TRUE,532,Big-visSmall/13_19.jpg,Small-visBig/24_61.jpg,c,1058
265,critical,small,incongruent,TRUE,529,Big-visSmall/10_09.jpg,Small-visBig/14_67.jpg,c,1061
265,critical,small,congruent,TRUE,549,Small-visSmall/24_61.jpg,Big-visBig/13_19.jpg,c,1064
265,critical,small,incongruent,TRUE,827,Big-visSmall/02_08.jpg,Small-visBig/03_57.jpg,c,1067
265,critical,small,incongruent,TRUE,826,Small-visBig/30_50.jpg,Big-visSmall/17_21.jpg,m,1070
265,critical,small,congruent,TRUE,501,Small-visSmall/12_58.jpg,Big-visBig/12_13.jpg,c,1073
265,critical,small,incongruent,TRUE,4766,Big-visSmall/19_17.jpg,Small-visBig/23_70.jpg,c,1076
265,critical,small,congruent,TRUE,586,Big-visBig/01_07.jpg,Small-visSmall/11_71.jpg,m,1079
265,critical,small,incongruent,TRUE,859,Big-visSmall/30_20.jpg,Small-visBig/22_65.jpg,c,1082
265,critical,small,congruent,TRUE,532,Small-visSmall/16_73.jpg,Big-visBig/23_16.jpg,c,1085
265,critical,small,congruent,TRUE,500,Small-visSmall/20_79.jpg,Big-visBig/21_31.jpg,c,1088
265,critical,small,congruent,TRUE,627,Small-visSmall/01_78.jpg,Big-visBig/11_40.jpg,c,1091
265,critical,small,congruent,TRUE,446,Small-visSmall/18_76.jpg,Big-visBig/03_36.jpg,c,1094
265,critical,small,incongruent,TRUE,548,Big-visSmall/23_16.jpg,Small-visBig/16_73.jpg,c,1097
265,critical,small,congruent,TRUE,477,Big-visBig/29_03.jpg,Small-visSmall/10_59.jpg,m,1100
265,critical,small,incongruent,TRUE,431,Big-visSmall/18_23.jpg,Small-visBig/13_77.jpg,c,1103
265,critical,small,congruent,TRUE,480,Small-visSmall/26_42.jpg,Big-visBig/09_15.jpg,c,1106
265,critical,small,congruent,TRUE,577,Big-visBig/14_34.jpg,Small-visSmall/27_63.jpg,m,1109
265,critical,small,congruent,TRUE,564,Small-visSmall/27_63.jpg,Big-visBig/14_34.jpg,c,1112
265,critical,small,incongruent,TRUE,985,Small-visBig/01_78.jpg,Big-visSmall/11_40.jpg,m,1115
265,critical,small,incongruent,TRUE,561,Small-visBig/06_43.jpg,Big-visSmall/22_26.jpg,m,1118
265,critical,big,incongruent,TRUE,1499,Big-visSmall/19_17.jpg,Small-visBig/23_70.jpg,m,1123
265,critical,big,congruent,TRUE,815,Small-visSmall/07_51.jpg,Big-visBig/27_18.jpg,m,1126
265,critical,big,incongruent,TRUE,498,Big-visSmall/25_10.jpg,Small-visBig/05_54.jpg,m,1129
265,critical,big,congruent,TRUE,435,Big-visBig/06_02.jpg,Small-visSmall/25_56.jpg,c,1132
265,critical,big,incongruent,TRUE,594,Small-visBig/08_45.jpg,Big-visSmall/07_33.jpg,c,1135
265,critical,big,incongruent,TRUE,604,Big-visSmall/16_28.jpg,Small-visBig/09_64.jpg,m,1138
265,critical,big,incongruent,TRUE,1035,Big-visSmall/23_16.jpg,Small-visBig/16_73.jpg,m,1141
265,critical,big,incongruent,TRUE,567,Big-visSmall/29_03.jpg,Small-visBig/10_59.jpg,m,1144
265,critical,big,incongruent,TRUE,536,Small-visBig/13_77.jpg,Big-visSmall/18_23.jpg,c,1147
265,critical,big,incongruent,TRUE,980,Big-visSmall/12_13.jpg,Small-visBig/12_58.jpg,m,1150
265,critical,big,incongruent,TRUE,933,Small-visBig/24_61.jpg,Big-visSmall/13_19.jpg,c,1153
265,critical,big,congruent,TRUE,586,Big-visBig/09_15.jpg,Small-visSmall/26_42.jpg,c,1156
265,critical,big,congruent,TRUE,813,Big-visBig/29_03.jpg,Small-visSmall/10_59.jpg,c,1159
265,critical,big,incongruent,TRUE,845,Small-visBig/19_41.jpg,Big-visSmall/08_35.jpg,c,1162
265,critical,big,congruent,TRUE,851,Small-visSmall/18_76.jpg,Big-visBig/03_36.jpg,m,1165
265,critical,big,congruent,TRUE,750,Big-visBig/10_09.jpg,Small-visSmall/14_67.jpg,c,1168
265,critical,big,congruent,TRUE,758,Big-visBig/18_23.jpg,Small-visSmall/13_77.jpg,c,1171
265,critical,big,incongruent,TRUE,1190,Big-visSmall/21_31.jpg,Small-visBig/20_79.jpg,m,1174
265,critical,big,incongruent,TRUE,1618,Big-visSmall/17_21.jpg,Small-visBig/30_50.jpg,m,1177
265,critical,big,incongruent,TRUE,815,Small-visBig/21_52.jpg,Big-visSmall/15_29.jpg,c,1180
265,critical,big,congruent,TRUE,767,Small-visSmall/08_45.jpg,Big-visBig/07_33.jpg,m,1183
265,critical,big,congruent,TRUE,443,Big-visBig/12_13.jpg,Small-visSmall/12_58.jpg,c,1186
265,critical,big,incongruent,TRUE,1013,Big-visSmall/18_23.jpg,Small-visBig/13_77.jpg,m,1189
265,critical,big,incongruent,TRUE,1212,Big-visSmall/30_20.jpg,Small-visBig/22_65.jpg,m,1192
265,critical,big,incongruent,TRUE,1400,Big-visSmall/14_34.jpg,Small-visBig/27_63.jpg,m,1195
265,critical,big,incongruent,TRUE,1089,Small-visBig/06_43.jpg,Big-visSmall/22_26.jpg,c,1198
265,critical,big,congruent,TRUE,728,Small-visSmall/09_64.jpg,Big-visBig/16_28.jpg,m,1201
265,critical,big,congruent,TRUE,526,Big-visBig/07_33.jpg,Small-visSmall/08_45.jpg,c,1204
265,critical,big,incongruent,TRUE,822,Small-visBig/12_58.jpg,Big-visSmall/12_13.jpg,c,1207
265,critical,big,congruent,TRUE,981,Small-visSmall/22_65.jpg,Big-visBig/30_20.jpg,m,1210
265,critical,big,incongruent,TRUE,689,Big-visSmall/03_36.jpg,Small-visBig/18_76.jpg,m,1213
265,critical,big,congruent,TRUE,1494,Small-visSmall/11_71.jpg,Big-visBig/01_07.jpg,m,1216
265,critical,big,incongruent,TRUE,1082,Big-visSmall/08_35.jpg,Small-visBig/19_41.jpg,m,1219
265,critical,big,congruent,TRUE,1042,Small-visSmall/23_70.jpg,Big-visBig/19_17.jpg,m,1222
265,critical,big,incongruent,TRUE,889,Big-visSmall/15_29.jpg,Small-visBig/21_52.jpg,m,1225
265,critical,big,incongruent,TRUE,766,Small-visBig/15_72.jpg,Big-visSmall/20_38.jpg,c,1228
265,critical,big,incongruent,TRUE,1128,Small-visBig/26_42.jpg,Big-visSmall/09_15.jpg,c,1231
265,critical,big,congruent,TRUE,1201,Small-visSmall/05_54.jpg,Big-visBig/25_10.jpg,m,1234
265,critical,big,congruent,TRUE,2575,Small-visSmall/20_79.jpg,Big-visBig/21_31.jpg,m,1237
265,critical,big,congruent,TRUE,2193,Small-visSmall/13_77.jpg,Big-visBig/18_23.jpg,m,1240
265,critical,big,congruent,TRUE,1316,Big-visBig/05_25.jpg,Small-visSmall/17_80.jpg,c,1243
265,critical,big,incongruent,TRUE,1339,Big-visSmall/04_05.jpg,Small-visBig/29_69.jpg,m,1246
265,critical,big,congruent,TRUE,967,Small-visSmall/06_43.jpg,Big-visBig/22_26.jpg,m,1249
265,critical,big,incongruent,TRUE,604,Small-visBig/03_57.jpg,Big-visSmall/02_08.jpg,c,1252
265,critical,big,congruent,TRUE,1025,Small-visSmall/03_57.jpg,Big-visBig/02_08.jpg,m,1255
265,critical,big,incongruent,TRUE,778,Small-visBig/30_50.jpg,Big-visSmall/17_21.jpg,c,1258
265,critical,big,incongruent,TRUE,738,Small-visBig/25_56.jpg,Big-visSmall/06_02.jpg,c,1261
265,critical,big,incongruent,TRUE,558,Big-visSmall/28_12.jpg,Small-visBig/02_44.jpg,m,1264
265,critical,big,incongruent,TRUE,1595,Big-visSmall/10_09.jpg,Small-visBig/14_67.jpg,m,1267
265,critical,big,congruent,TRUE,527,Big-visBig/04_05.jpg,Small-visSmall/29_69.jpg,c,1270
265,critical,big,incongruent,TRUE,567,Small-visBig/17_80.jpg,Big-visSmall/05_25.jpg,c,1273
265,critical,big,congruent,TRUE,622,Big-visBig/23_16.jpg,Small-visSmall/16_73.jpg,c,1276
265,critical,big,incongruent,TRUE,580,Small-visBig/23_70.jpg,Big-visSmall/19_17.jpg,c,1279
265,critical,big,congruent,TRUE,615,Small-visSmall/19_41.jpg,Big-visBig/08_35.jpg,m,1282
265,critical,big,incongruent,TRUE,1368,Big-visSmall/09_15.jpg,Small-visBig/26_42.jpg,m,1285
265,critical,big,congruent,TRUE,583,Big-visBig/21_31.jpg,Small-visSmall/20_79.jpg,c,1288
265,critical,big,congruent,TRUE,2053,Small-visSmall/28_47.jpg,Big-visBig/26_32.jpg,m,1291
265,critical,big,congruent,TRUE,2129,Big-visBig/26_32.jpg,Small-visSmall/28_47.jpg,c,1294
265,critical,big,congruent,TRUE,976,Big-visBig/19_17.jpg,Small-visSmall/23_70.jpg,c,1297
265,critical,big,incongruent,TRUE,905,Small-visBig/22_65.jpg,Big-visSmall/30_20.jpg,c,1300
265,critical,big,incongruent,TRUE,1448,Small-visBig/14_67.jpg,Big-visSmall/10_09.jpg,c,1303
265,critical,big,congruent,TRUE,1224,Small-visSmall/17_80.jpg,Big-visBig/05_25.jpg,m,1306
265,critical,big,incongruent,TRUE,1170,Small-visBig/29_69.jpg,Big-visSmall/04_05.jpg,c,1309
265,critical,big,incongruent,TRUE,1079,Big-visSmall/27_18.jpg,Small-visBig/07_51.jpg,m,1312
265,critical,big,congruent,TRUE,942,Small-visSmall/02_44.jpg,Big-visBig/28_12.jpg,m,1315
265,critical,big,incongruent,TRUE,619,Small-visBig/05_54.jpg,Big-visSmall/25_10.jpg,c,1318
265,critical,big,incongruent,TRUE,872,Small-visBig/02_44.jpg,Big-visSmall/28_12.jpg,c,1321
265,critical,big,congruent,TRUE,755,Small-visSmall/04_48.jpg,Big-visBig/24_06.jpg,m,1324
265,critical,big,congruent,TRUE,971,Big-visBig/22_26.jpg,Small-visSmall/06_43.jpg,c,1327
265,critical,big,congruent,TRUE,836,Small-visSmall/16_73.jpg,Big-visBig/23_16.jpg,m,1330
265,critical,big,incongruent,TRUE,971,Big-visSmall/26_32.jpg,Small-visBig/28_47.jpg,m,1333
265,critical,big,congruent,TRUE,732,Big-visBig/17_21.jpg,Small-visSmall/30_50.jpg,c,1336
265,critical,big,congruent,TRUE,845,Small-visSmall/27_63.jpg,Big-visBig/14_34.jpg,m,1339
265,critical,big,incongruent,TRUE,1572,Small-visBig/09_64.jpg,Big-visSmall/16_28.jpg,c,1342
265,critical,big,congruent,TRUE,1557,Small-visSmall/25_56.jpg,Big-visBig/06_02.jpg,m,1345
265,critical,big,incongruent,TRUE,2612,Big-visSmall/11_40.jpg,Small-visBig/01_78.jpg,m,1348
265,critical,big,incongruent,TRUE,850,Small-visBig/10_59.jpg,Big-visSmall/29_03.jpg,c,1351
265,critical,big,congruent,TRUE,1958,Small-visSmall/29_69.jpg,Big-visBig/04_05.jpg,m,1354
265,critical,big,congruent,TRUE,2166,Big-visBig/16_28.jpg,Small-visSmall/09_64.jpg,c,1357
265,critical,big,incongruent,TRUE,1283,Small-visBig/04_48.jpg,Big-visSmall/24_06.jpg,c,1360
265,critical,big,incongruent,TRUE,658,Big-visSmall/05_25.jpg,Small-visBig/17_80.jpg,m,1363
265,critical,big,incongruent,TRUE,1264,Big-visSmall/20_38.jpg,Small-visBig/15_72.jpg,m,1366
265,critical,big,incongruent,TRUE,631,Small-visBig/07_51.jpg,Big-visSmall/27_18.jpg,c,1369
265,critical,big,incongruent,TRUE,536,Big-visSmall/07_33.jpg,Small-visBig/08_45.jpg,m,1372
265,critical,big,incongruent,TRUE,676,Big-visSmall/22_26.jpg,Small-visBig/06_43.jpg,m,1375
265,critical,big,congruent,TRUE,517,Big-visBig/28_12.jpg,Small-visSmall/02_44.jpg,c,1378
265,critical,big,congruent,TRUE,1185,Big-visBig/02_08.jpg,Small-visSmall/03_57.jpg,c,1381
265,critical,big,congruent,TRUE,928,Big-visBig/27_18.jpg,Small-visSmall/07_51.jpg,c,1384
265,critical,big,congruent,TRUE,1112,Big-visBig/03_36.jpg,Small-visSmall/18_76.jpg,c,1387
265,critical,big,incongruent,TRUE,630,Small-visBig/20_79.jpg,Big-visSmall/21_31.jpg,c,1390
265,critical,big,congruent,TRUE,981,Big-visBig/25_10.jpg,Small-visSmall/05_54.jpg,c,1393
265,critical,big,incongruent,TRUE,785,Big-visSmall/06_02.jpg,Small-visBig/25_56.jpg,m,1396
265,critical,big,congruent,TRUE,609,Big-visBig/08_35.jpg,Small-visSmall/19_41.jpg,c,1399
265,critical,big,incongruent,TRUE,522,Small-visBig/11_71.jpg,Big-visSmall/01_07.jpg,c,1402
265,critical,big,congruent,TRUE,697,Small-visSmall/12_58.jpg,Big-visBig/12_13.jpg,m,1405
265,critical,big,incongruent,TRUE,627,Small-visBig/18_76.jpg,Big-visSmall/03_36.jpg,c,1408
265,critical,big,congruent,TRUE,4264,Small-visSmall/01_78.jpg,Big-visBig/11_40.jpg,m,1411
265,critical,big,congruent,TRUE,10400,Small-visSmall/15_72.jpg,Big-visBig/20_38.jpg,m,1414
265,critical,big,incongruent,TRUE,632,Small-visBig/28_47.jpg,Big-visSmall/26_32.jpg,c,1417
265,critical,big,incongruent,TRUE,507,Small-visBig/16_73.jpg,Big-visSmall/23_16.jpg,c,1420
265,critical,big,congruent,TRUE,693,Big-visBig/14_34.jpg,Small-visSmall/27_63.jpg,c,1423
265,critical,big,congruent,TRUE,652,Big-visBig/11_40.jpg,Small-visSmall/01_78.jpg,c,1426
265,critical,big,congruent,TRUE,669,Small-visSmall/14_67.jpg,Big-visBig/10_09.jpg,m,1429
265,critical,big,congruent,TRUE,492,Big-visBig/13_19.jpg,Small-visSmall/24_61.jpg,c,1432
265,critical,big,congruent,TRUE,578,Small-visSmall/24_61.jpg,Big-visBig/13_19.jpg,m,1435
265,critical,big,incongruent,TRUE,692,Small-visBig/01_78.jpg,Big-visSmall/11_40.jpg,c,1438
265,critical,big,incongruent,TRUE,693,Big-visSmall/02_08.jpg,Small-visBig/03_57.jpg,m,1441
265,critical,big,incongruent,TRUE,846,Big-visSmall/13_19.jpg,Small-visBig/24_61.jpg,m,1444
265,critical,big,congruent,TRUE,1015,Small-visSmall/10_59.jpg,Big-visBig/29_03.jpg,m,1447
265,critical,big,incongruent,TRUE,1143,Big-visSmall/01_07.jpg,Small-visBig/11_71.jpg,m,1450
265,critical,big,congruent,TRUE,698,Small-visSmall/30_50.jpg,Big-visBig/17_21.jpg,m,1453
265,critical,big,congruent,TRUE,772,Small-visSmall/21_52.jpg,Big-visBig/15_29.jpg,m,1456
265,critical,big,incongruent,TRUE,444,Small-visBig/27_63.jpg,Big-visSmall/14_34.jpg,c,1459
265,critical,big,congruent,TRUE,536,Big-visBig/24_06.jpg,Small-visSmall/04_48.jpg,c,1462
265,critical,big,congruent,TRUE,615,Big-visBig/15_29.jpg,Small-visSmall/21_52.jpg,c,1465
265,critical,big,congruent,TRUE,568,Big-visBig/01_07.jpg,Small-visSmall/11_71.jpg,c,1468
265,critical,big,incongruent,TRUE,840,Big-visSmall/24_06.jpg,Small-visBig/04_48.jpg,m,1471
265,critical,big,congruent,TRUE,654,Big-visBig/30_20.jpg,Small-visSmall/22_65.jpg,c,1474
265,critical,big,congruent,TRUE,831,Small-visSmall/26_42.jpg,Big-visBig/09_15.jpg,m,1477
265,critical,big,congruent,TRUE,638,Big-visBig/20_38.jpg,Small-visSmall/15_72.jpg,c,1480
202,practice,small,congruent,TRUE,2139,Big-visBig/23_16.jpg,Small-visSmall/24_61.jpg,m,4
202,practice,small,congruent,TRUE,1146,Big-visBig/25_10.jpg,Small-visSmall/29_69.jpg,m,7
202,practice,small,incongruent,TRUE,1350,Big-visSmall/12_13.jpg,Small-visBig/10_59.jpg,c,10
202,practice,small,congruent,TRUE,1012,Big-visBig/06_02.jpg,Small-visSmall/30_50.jpg,m,13
202,practice,small,incongruent,TRUE,1149,Big-visSmall/24_06.jpg,Small-visBig/25_56.jpg,c,16
202,practice,big,incongruent,TRUE,1339,Small-visBig/06_43.jpg,Big-visSmall/03_36.jpg,c,20
202,practice,big,incongruent,TRUE,726,Big-visSmall/16_28.jpg,Small-visBig/15_72.jpg,m,23
202,practice,big,congruent,TRUE,1107,Small-visSmall/25_56.jpg,Big-visBig/24_06.jpg,m,26
202,practice,big,congruent,TRUE,685,Small-visSmall/08_45.jpg,Big-visBig/29_03.jpg,m,29
202,practice,big,congruent,TRUE,1244,Small-visSmall/16_73.jpg,Big-visBig/09_15.jpg,m,32
202,critical,small,incongruent,TRUE,822,Small-visBig/09_64.jpg,Big-visSmall/09_15.jpg,m,37
202,critical,small,congruent,TRUE,708,Big-visBig/29_03.jpg,Small-visSmall/29_69.jpg,m,40
202,critical,small,incongruent,TRUE,1001,Small-visBig/04_48.jpg,Big-visSmall/04_05.jpg,m,43
202,critical,small,incongruent,TRUE,635,Big-visSmall/14_34.jpg,Small-visBig/14_67.jpg,c,46
202,critical,small,incongruent,TRUE,582,Small-visBig/03_57.jpg,Big-visSmall/03_36.jpg,m,49
202,critical,small,congruent,TRUE,545,Big-visBig/25_10.jpg,Small-visSmall/25_56.jpg,m,52
202,critical,small,incongruent,TRUE,675,Small-visBig/13_77.jpg,Big-visSmall/13_19.jpg,m,55
202,critical,small,incongruent,TRUE,660,Small-visBig/01_78.jpg,Big-visSmall/01_07.jpg,m,58
202,critical,small,congruent,TRUE,609,Big-visBig/14_34.jpg,Small-visSmall/14_67.jpg,m,61
202,critical,small,incongruent,TRUE,702,Small-visBig/21_52.jpg,Big-visSmall/21_31.jpg,m,64
202,critical,small,congruent,TRUE,543,Big-visBig/08_35.jpg,Small-visSmall/08_45.jpg,m,67
202,critical,small,incongruent,TRUE,430,Small-visBig/25_56.jpg,Big-visSmall/25_10.jpg,m,70
202,critical,small,congruent,TRUE,423,Big-visBig/30_20.jpg,Small-visSmall/30_50.jpg,m,73
202,critical,small,congruent,TRUE,528,Small-visSmall/20_79.jpg,Big-visBig/20_38.jpg,c,76
202,critical,small,incongruent,TRUE,491,Big-visSmall/25_10.jpg,Small-visBig/25_56.jpg,c,79
202,critical,small,congruent,TRUE,739,Big-visBig/05_25.jpg,Small-visSmall/05_54.jpg,m,82
202,critical,small,incongruent,TRUE,934,Small-visBig/08_45.jpg,Big-visSmall/08_35.jpg,m,85
202,critical,small,congruent,TRUE,737,Big-visBig/10_09.jpg,Small-visSmall/10_59.jpg,m,88
202,critical,small,congruent,TRUE,519,Small-visSmall/26_42.jpg,Big-visBig/26_32.jpg,c,91
202,critical,small,congruent,TRUE,445,Small-visSmall/22_65.jpg,Big-visBig/22_26.jpg,c,94
202,critical,small,incongruent,TRUE,520,Big-visSmall/12_13.jpg,Small-visBig/12_58.jpg,c,97
202,critical,small,incongruent,TRUE,542,Small-visBig/10_59.jpg,Big-visSmall/10_09.jpg,m,100
202,critical,small,congruent,TRUE,1131,Big-visBig/21_31.jpg,Small-visSmall/21_52.jpg,m,103
202,critical,small,congruent,TRUE,515,Small-visSmall/29_69.jpg,Big-visBig/29_03.jpg,c,106
202,critical,small,incongruent,TRUE,607,Small-visBig/24_61.jpg,Big-visSmall/24_06.jpg,m,109
202,critical,small,incongruent,TRUE,1096,Big-visSmall/18_23.jpg,Small-visBig/18_76.jpg,c,112
202,critical,small,congruent,TRUE,385,Small-visSmall/11_71.jpg,Big-visBig/11_40.jpg,c,115
202,critical,small,congruent,TRUE,418,Small-visSmall/28_47.jpg,Big-visBig/28_12.jpg,c,118
202,critical,small,congruent,TRUE,831,Small-visSmall/25_56.jpg,Big-visBig/25_10.jpg,c,121
202,critical,small,incongruent,TRUE,432,Big-visSmall/09_15.jpg,Small-visBig/09_64.jpg,c,124
202,critical,small,congruent,TRUE,404,Small-visSmall/06_43.jpg,Big-visBig/06_02.jpg,c,127
202,critical,small,congruent,TRUE,15545,Small-visSmall/27_63.jpg,Big-visBig/27_18.jpg,c,130
202,critical,small,congruent,TRUE,565,Big-visBig/11_40.jpg,Small-visSmall/11_71.jpg,m,133
202,critical,small,congruent,TRUE,478,Big-visBig/03_36.jpg,Small-visSmall/03_57.jpg,m,136
202,critical,small,congruent,TRUE,503,Big-visBig/23_16.jpg,Small-visSmall/23_70.jpg,m,139
202,critical,small,incongruent,TRUE,663,Big-visSmall/04_05.jpg,Small-visBig/04_48.jpg,c,142
202,critical,small,incongruent,TRUE,568,Small-visBig/30_50.jpg,Big-visSmall/30_20.jpg,m,145
202,critical,small,congruent,TRUE,544,Small-visSmall/24_61.jpg,Big-visBig/24_06.jpg,c,148
202,critical,small,congruent,TRUE,417,Small-visSmall/15_72.jpg,Big-visBig/15_29.jpg,c,151
202,critical,small,incongruent,TRUE,394,Big-visSmall/26_32.jpg,Small-visBig/26_42.jpg,c,154
202,critical,small,congruent,TRUE,348,Small-visSmall/01_78.jpg,Big-visBig/01_07.jpg,c,157
202,critical,small,incongruent,TRUE,446,Big-visSmall/16_28.jpg,Small-visBig/16_73.jpg,c,160
202,critical,small,incongruent,TRUE,2609,Big-visSmall/15_29.jpg,Small-visBig/15_72.jpg,c,163
202,critical,small,congruent,FALSE,473,Big-visBig/27_18.jpg,Small-visSmall/27_63.jpg,c,166
202,critical,small,incongruent,TRUE,715,Small-visBig/28_47.jpg,Big-visSmall/28_12.jpg,m,169
202,critical,small,congruent,TRUE,599,Big-visBig/06_02.jpg,Small-visSmall/06_43.jpg,m,172
202,critical,small,congruent,TRUE,490,Small-visSmall/21_52.jpg,Big-visBig/21_31.jpg,c,175
202,critical,small,incongruent,TRUE,714,Big-visSmall/24_06.jpg,Small-visBig/24_61.jpg,c,178
202,critical,small,congruent,TRUE,443,Small-visSmall/19_41.jpg,Big-visBig/19_17.jpg,c,181
202,critical,small,congruent,TRUE,471,Small-visSmall/16_73.jpg,Big-visBig/16_28.jpg,c,184
202,critical,small,incongruent,TRUE,480,Big-visSmall/08_35.jpg,Small-visBig/08_45.jpg,c,187
202,critical,small,incongruent,TRUE,639,Small-visBig/17_80.jpg,Big-visSmall/17_21.jpg,m,190
202,critical,small,incongruent,TRUE,475,Big-visSmall/06_02.jpg,Small-visBig/06_43.jpg,c,193
202,critical,small,congruent,TRUE,467,Small-visSmall/03_57.jpg,Big-visBig/03_36.jpg,c,196
202,critical,small,congruent,TRUE,533,Big-visBig/01_07.jpg,Small-visSmall/01_78.jpg,m,199
202,critical,small,congruent,TRUE,434,Small-visSmall/13_77.jpg,Big-visBig/13_19.jpg,c,202
202,critical,small,incongruent,TRUE,589,Small-visBig/05_54.jpg,Big-visSmall/05_25.jpg,m,205
202,critical,small,congruent,TRUE,488,Big-visBig/04_05.jpg,Small-visSmall/04_48.jpg,m,208
202,critical,small,incongruent,TRUE,627,Big-visSmall/27_18.jpg,Small-visBig/27_63.jpg,c,211
202,critical,small,incongruent,TRUE,593,Small-visBig/07_51.jpg,Big-visSmall/07_33.jpg,m,214
202,critical,small,incongruent,TRUE,627,Big-visSmall/19_17.jpg,Small-visBig/19_41.jpg,c,217
202,critical,small,incongruent,TRUE,1124,Small-visBig/22_65.jpg,Big-visSmall/22_26.jpg,m,220
202,critical,small,incongruent,TRUE,435,Small-visBig/02_44.jpg,Big-visSmall/02_08.jpg,m,223
202,critical,small,incongruent,TRUE,1126,Big-visSmall/29_03.jpg,Small-visBig/29_69.jpg,c,226
202,critical,small,congruent,TRUE,1883,Small-visSmall/30_50.jpg,Big-visBig/30_20.jpg,c,229
202,critical,small,incongruent,TRUE,589,Big-visSmall/21_31.jpg,Small-visBig/21_52.jpg,c,232
202,critical,small,congruent,TRUE,659,Big-visBig/28_12.jpg,Small-visSmall/28_47.jpg,m,235
202,critical,small,incongruent,TRUE,445,Small-visBig/27_63.jpg,Big-visSmall/27_18.jpg,m,238
202,critical,small,congruent,TRUE,832,Big-visBig/24_06.jpg,Small-visSmall/24_61.jpg,m,241
202,critical,small,congruent,TRUE,578,Small-visSmall/23_70.jpg,Big-visBig/23_16.jpg,c,244
202,critical,small,congruent,TRUE,572,Big-visBig/26_32.jpg,Small-visSmall/26_42.jpg,m,247
202,critical,small,incongruent,TRUE,564,Big-visSmall/23_16.jpg,Small-visBig/23_70.jpg,c,250
202,critical,small,incongruent,TRUE,861,Big-visSmall/30_20.jpg,Small-visBig/30_50.jpg,c,253
202,critical,small,congruent,TRUE,528,Big-visBig/09_15.jpg,Small-visSmall/09_64.jpg,m,256
202,critical,small,incongruent,TRUE,750,Big-visSmall/02_08.jpg,Small-visBig/02_44.jpg,c,259
202,critical,small,incongruent,TRUE,21912,Big-visSmall/07_33.jpg,Small-visBig/07_51.jpg,c,262
202,critical,small,incongruent,TRUE,456,Big-visSmall/17_21.jpg,Small-visBig/17_80.jpg,c,265
202,critical,small,congruent,TRUE,413,Small-visSmall/05_54.jpg,Big-visBig/05_25.jpg,c,268
202,critical,small,congruent,TRUE,600,Big-visBig/07_33.jpg,Small-visSmall/07_51.jpg,m,271
202,critical,small,congruent,TRUE,540,Small-visSmall/02_44.jpg,Big-visBig/02_08.jpg,c,274
202,critical,small,incongruent,TRUE,514,Small-visBig/23_70.jpg,Big-visSmall/23_16.jpg,m,277
202,critical,small,congruent,TRUE,501,Small-visSmall/08_45.jpg,Big-visBig/08_35.jpg,c,280
202,critical,small,congruent,TRUE,505,Big-visBig/20_38.jpg,Small-visSmall/20_79.jpg,m,283
202,critical,small,incongruent,TRUE,401,Big-visSmall/01_07.jpg,Small-visBig/01_78.jpg,c,286
202,critical,small,incongruent,TRUE,793,Small-visBig/11_71.jpg,Big-visSmall/11_40.jpg,m,289
202,critical,small,congruent,TRUE,597,Small-visSmall/09_64.jpg,Big-visBig/09_15.jpg,c,292
202,critical,small,incongruent,TRUE,614,Big-visSmall/05_25.jpg,Small-visBig/05_54.jpg,c,295
202,critical,small,incongruent,TRUE,473,Big-visSmall/13_19.jpg,Small-visBig/13_77.jpg,c,298
202,critical,small,congruent,TRUE,6033,Small-visSmall/10_59.jpg,Big-visBig/10_09.jpg,c,301
202,critical,small,congruent,TRUE,467,Big-visBig/19_17.jpg,Small-visSmall/19_41.jpg,m,304
202,critical,small,incongruent,TRUE,561,Small-visBig/12_58.jpg,Big-visSmall/12_13.jpg,m,307
202,critical,small,incongruent,FALSE,821,Big-visSmall/28_12.jpg,Small-visBig/28_47.jpg,m,310
202,critical,small,congruent,TRUE,495,Big-visBig/16_28.jpg,Small-visSmall/16_73.jpg,m,313
202,critical,small,incongruent,TRUE,500,Small-visBig/15_72.jpg,Big-visSmall/15_29.jpg,m,316
202,critical,small,incongruent,TRUE,512,Small-visBig/06_43.jpg,Big-visSmall/06_02.jpg,m,319
202,critical,small,congruent,TRUE,510,Small-visSmall/14_67.jpg,Big-visBig/14_34.jpg,c,322
202,critical,small,incongruent,TRUE,788,Small-visBig/20_79.jpg,Big-visSmall/20_38.jpg,m,325
202,critical,small,congruent,TRUE,13104,Big-visBig/13_19.jpg,Small-visSmall/13_77.jpg,m,328
202,critical,small,congruent,TRUE,463,Big-visBig/12_13.jpg,Small-visSmall/12_58.jpg,m,331
202,critical,small,congruent,TRUE,541,Small-visSmall/04_48.jpg,Big-visBig/04_05.jpg,c,334
202,critical,small,congruent,TRUE,539,Big-visBig/02_08.jpg,Small-visSmall/02_44.jpg,m,337
202,critical,small,incongruent,TRUE,556,Small-visBig/18_76.jpg,Big-visSmall/18_23.jpg,m,340
202,critical,small,congruent,TRUE,469,Small-visSmall/12_58.jpg,Big-visBig/12_13.jpg,c,343
202,critical,small,incongruent,TRUE,911,Small-visBig/19_41.jpg,Big-visSmall/19_17.jpg,m,346
202,critical,small,incongruent,TRUE,673,Small-visBig/16_73.jpg,Big-visSmall/16_28.jpg,m,349
202,critical,small,congruent,TRUE,541,Big-visBig/17_21.jpg,Small-visSmall/17_80.jpg,m,352
202,critical,small,congruent,TRUE,472,Big-visBig/15_29.jpg,Small-visSmall/15_72.jpg,m,355
202,critical,small,congruent,TRUE,659,Small-visSmall/07_51.jpg,Big-visBig/07_33.jpg,c,358
202,critical,small,incongruent,TRUE,669,Small-visBig/29_69.jpg,Big-visSmall/29_03.jpg,m,361
202,critical,small,incongruent,TRUE,763,Small-visBig/14_67.jpg,Big-visSmall/14_34.jpg,m,364
202,critical,small,incongruent,TRUE,938,Big-visSmall/11_40.jpg,Small-visBig/11_71.jpg,c,367
202,critical,small,congruent,TRUE,546,Small-visSmall/17_80.jpg,Big-visBig/17_21.jpg,c,370
202,critical,small,congruent,FALSE,600,Big-visBig/18_23.jpg,Small-visSmall/18_76.jpg,c,373
202,critical,small,congruent,TRUE,513,Small-visSmall/18_76.jpg,Big-visBig/18_23.jpg,c,376
202,critical,small,congruent,TRUE,552,Big-visBig/22_26.jpg,Small-visSmall/22_65.jpg,m,379
202,critical,small,incongruent,TRUE,510,Big-visSmall/20_38.jpg,Small-visBig/20_79.jpg,c,382
202,critical,small,incongruent,TRUE,545,Big-visSmall/03_36.jpg,Small-visBig/03_57.jpg,c,385
202,critical,small,incongruent,FALSE,541,Small-visBig/26_42.jpg,Big-visSmall/26_32.jpg,c,388
202,critical,small,incongruent,TRUE,548,Big-visSmall/10_09.jpg,Small-visBig/10_59.jpg,c,391
202,critical,small,incongruent,TRUE,1429,Big-visSmall/22_26.jpg,Small-visBig/22_65.jpg,c,394
202,critical,big,incongruent,TRUE,1198,Big-visSmall/21_31.jpg,Small-visBig/21_52.jpg,m,399
202,critical,big,incongruent,TRUE,1077,Small-visBig/19_41.jpg,Big-visSmall/19_17.jpg,c,402
202,critical,big,congruent,TRUE,442,Small-visSmall/24_61.jpg,Big-visBig/24_06.jpg,m,405
202,critical,big,congruent,TRUE,509,Small-visSmall/27_63.jpg,Big-visBig/27_18.jpg,m,408
202,critical,big,congruent,TRUE,529,Big-visBig/04_05.jpg,Small-visSmall/04_48.jpg,c,411
202,critical,big,congruent,TRUE,740,Big-visBig/02_08.jpg,Small-visSmall/02_44.jpg,c,414
202,critical,big,incongruent,TRUE,516,Small-visBig/06_43.jpg,Big-visSmall/06_02.jpg,c,417
202,critical,big,incongruent,TRUE,499,Small-visBig/03_57.jpg,Big-visSmall/03_36.jpg,c,420
202,critical,big,incongruent,TRUE,370,Small-visBig/29_69.jpg,Big-visSmall/29_03.jpg,c,423
202,critical,big,congruent,TRUE,389,Big-visBig/14_34.jpg,Small-visSmall/14_67.jpg,c,426
202,critical,big,congruent,TRUE,346,Big-visBig/13_19.jpg,Small-visSmall/13_77.jpg,c,429
202,critical,big,incongruent,TRUE,709,Big-visSmall/27_18.jpg,Small-visBig/27_63.jpg,m,432
202,critical,big,congruent,TRUE,352,Big-visBig/07_33.jpg,Small-visSmall/07_51.jpg,c,435
202,critical,big,congruent,TRUE,348,Big-visBig/03_36.jpg,Small-visSmall/03_57.jpg,c,438
202,critical,big,incongruent,TRUE,827,Small-visBig/21_52.jpg,Big-visSmall/21_31.jpg,c,441
202,critical,big,congruent,TRUE,423,Big-visBig/20_38.jpg,Small-visSmall/20_79.jpg,c,444
202,critical,big,congruent,TRUE,367,Big-visBig/21_31.jpg,Small-visSmall/21_52.jpg,c,447
202,critical,big,incongruent,TRUE,471,Small-visBig/16_73.jpg,Big-visSmall/16_28.jpg,c,450
202,critical,big,congruent,TRUE,637,Small-visSmall/11_71.jpg,Big-visBig/11_40.jpg,m,453
202,critical,big,incongruent,TRUE,901,Small-visBig/15_72.jpg,Big-visSmall/15_29.jpg,c,456
202,critical,big,incongruent,TRUE,474,Small-visBig/02_44.jpg,Big-visSmall/02_08.jpg,c,459
202,critical,big,incongruent,TRUE,690,Big-visSmall/12_13.jpg,Small-visBig/12_58.jpg,m,462
202,critical,big,incongruent,FALSE,388,Big-visSmall/22_26.jpg,Small-visBig/22_65.jpg,c,465
202,critical,big,congruent,TRUE,502,Small-visSmall/30_50.jpg,Big-visBig/30_20.jpg,m,468
202,critical,big,incongruent,TRUE,553,Big-visSmall/05_25.jpg,Small-visBig/05_54.jpg,m,471
202,critical,big,incongruent,TRUE,600,Small-visBig/13_77.jpg,Big-visSmall/13_19.jpg,c,474
202,critical,big,congruent,TRUE,526,Small-visSmall/09_64.jpg,Big-visBig/09_15.jpg,m,477
202,critical,big,incongruent,TRUE,636,Small-visBig/20_79.jpg,Big-visSmall/20_38.jpg,c,480
202,critical,big,incongruent,TRUE,629,Big-visSmall/20_38.jpg,Small-visBig/20_79.jpg,m,483
202,critical,big,incongruent,TRUE,666,Small-visBig/18_76.jpg,Big-visSmall/18_23.jpg,c,486
202,critical,big,congruent,TRUE,584,Big-visBig/22_26.jpg,Small-visSmall/22_65.jpg,c,489
202,critical,big,congruent,TRUE,446,Big-visBig/01_07.jpg,Small-visSmall/01_78.jpg,c,492
202,critical,big,incongruent,TRUE,540,Big-visSmall/07_33.jpg,Small-visBig/07_51.jpg,m,495
202,critical,big,incongruent,TRUE,740,Big-visSmall/01_07.jpg,Small-visBig/01_78.jpg,m,498
202,critical,big,incongruent,TRUE,531,Small-visBig/26_42.jpg,Big-visSmall/26_32.jpg,c,501
202,critical,big,congruent,TRUE,438,Big-visBig/16_28.jpg,Small-visSmall/16_73.jpg,c,504
202,critical,big,congruent,TRUE,411,Big-visBig/19_17.jpg,Small-visSmall/19_41.jpg,c,507
202,critical,big,congruent,TRUE,566,Small-visSmall/20_79.jpg,Big-visBig/20_38.jpg,m,510
202,critical,big,incongruent,TRUE,1075,Small-visBig/10_59.jpg,Big-visSmall/10_09.jpg,c,513
202,critical,big,congruent,TRUE,429,Small-visSmall/25_56.jpg,Big-visBig/25_10.jpg,m,516
202,critical,big,congruent,TRUE,443,Big-visBig/30_20.jpg,Small-visSmall/30_50.jpg,c,519
202,critical,big,congruent,TRUE,501,Small-visSmall/10_59.jpg,Big-visBig/10_09.jpg,m,522
202,critical,big,incongruent,TRUE,624,Big-visSmall/30_20.jpg,Small-visBig/30_50.jpg,m,525
202,critical,big,congruent,TRUE,787,Big-visBig/24_06.jpg,Small-visSmall/24_61.jpg,c,528
202,critical,big,congruent,TRUE,442,Small-visSmall/19_41.jpg,Big-visBig/19_17.jpg,m,531
202,critical,big,congruent,TRUE,356,Small-visSmall/14_67.jpg,Big-visBig/14_34.jpg,m,534
202,critical,big,incongruent,TRUE,556,Small-visBig/08_45.jpg,Big-visSmall/08_35.jpg,c,537
202,critical,big,congruent,TRUE,530,Small-visSmall/12_58.jpg,Big-visBig/12_13.jpg,m,540
202,critical,big,incongruent,TRUE,740,Big-visSmall/19_17.jpg,Small-visBig/19_41.jpg,m,543
202,critical,big,congruent,TRUE,578,Big-visBig/27_18.jpg,Small-visSmall/27_63.jpg,c,546
202,critical,big,congruent,TRUE,512,Small-visSmall/01_78.jpg,Big-visBig/01_07.jpg,m,549
202,critical,big,congruent,TRUE,758,Big-visBig/29_03.jpg,Small-visSmall/29_69.jpg,c,552
202,critical,big,congruent,TRUE,482,Big-visBig/08_35.jpg,Small-visSmall/08_45.jpg,c,555
202,critical,big,incongruent,TRUE,446,Big-visSmall/06_02.jpg,Small-visBig/06_43.jpg,m,558
202,critical,big,incongruent,TRUE,614,Big-visSmall/25_10.jpg,Small-visBig/25_56.jpg,m,561
202,critical,big,incongruent,TRUE,4033,Small-visBig/12_58.jpg,Big-visSmall/12_13.jpg,c,564
202,critical,big,congruent,TRUE,431,Big-visBig/12_13.jpg,Small-visSmall/12_58.jpg,c,567
202,critical,big,incongruent,TRUE,521,Big-visSmall/29_03.jpg,Small-visBig/29_69.jpg,m,570
202,critical,big,congruent,TRUE,415,Small-visSmall/08_45.jpg,Big-visBig/08_35.jpg,m,573
202,critical,big,incongruent,TRUE,342,Big-visSmall/02_08.jpg,Small-visBig/02_44.jpg,m,576
202,critical,big,incongruent,FALSE,251,Small-visBig/28_47.jpg,Big-visSmall/28_12.jpg,m,579
202,critical,big,incongruent,TRUE,478,Small-visBig/14_67.jpg,Big-visSmall/14_34.jpg,c,582
202,critical,big,incongruent,TRUE,602,Small-visBig/07_51.jpg,Big-visSmall/07_33.jpg,c,585
202,critical,big,congruent,TRUE,678,Small-visSmall/04_48.jpg,Big-visBig/04_05.jpg,m,588
202,critical,big,congruent,TRUE,461,Small-visSmall/26_42.jpg,Big-visBig/26_32.jpg,m,591
202,critical,big,congruent,TRUE,414,Big-visBig/18_23.jpg,Small-visSmall/18_76.jpg,c,594
202,critical,big,incongruent,TRUE,648,Big-visSmall/18_23.jpg,Small-visBig/18_76.jpg,m,597
202,critical,big,congruent,TRUE,853,Small-visSmall/05_54.jpg,Big-visBig/05_25.jpg,m,600
202,critical,big,incongruent,TRUE,3934,Small-visBig/01_78.jpg,Big-visSmall/01_07.jpg,c,603
202,critical,big,incongruent,TRUE,409,Big-visSmall/17_21.jpg,Small-visBig/17_80.jpg,m,606
202,critical,big,incongruent,TRUE,701,Small-visBig/27_63.jpg,Big-visSmall/27_18.jpg,c,609
202,critical,big,incongruent,TRUE,514,Big-visSmall/23_16.jpg,Small-visBig/23_70.jpg,m,612
202,critical,big,congruent,TRUE,428,Big-visBig/25_10.jpg,Small-visSmall/25_56.jpg,c,615
202,critical,big,congruent,TRUE,440,Big-visBig/06_02.jpg,Small-visSmall/06_43.jpg,c,618
202,critical,big,congruent,TRUE,354,Small-visSmall/18_76.jpg,Big-visBig/18_23.jpg,m,621
202,critical,big,congruent,TRUE,264,Small-visSmall/03_57.jpg,Big-visBig/03_36.jpg,m,624
202,critical,big,incongruent,TRUE,12065,Big-visSmall/13_19.jpg,Small-visBig/13_77.jpg,m,627
202,critical,big,incongruent,TRUE,2282,Big-visSmall/26_32.jpg,Small-visBig/26_42.jpg,m,630
202,critical,big,incongruent,TRUE,1035,Small-visBig/05_54.jpg,Big-visSmall/05_25.jpg,c,633
202,critical,big,congruent,TRUE,621,Big-visBig/26_32.jpg,Small-visSmall/26_42.jpg,c,636
202,critical,big,congruent,TRUE,36375,Small-visSmall/13_77.jpg,Big-visBig/13_19.jpg,m,639
202,critical,big,incongruent,TRUE,681,Big-visSmall/28_12.jpg,Small-visBig/28_47.jpg,m,642
202,critical,big,congruent,TRUE,442,Big-visBig/05_25.jpg,Small-visSmall/05_54.jpg,c,645
202,critical,big,incongruent,TRUE,372,Small-visBig/23_70.jpg,Big-visSmall/23_16.jpg,c,648
202,critical,big,incongruent,TRUE,517,Big-visSmall/15_29.jpg,Small-visBig/15_72.jpg,m,651
202,critical,big,congruent,TRUE,622,Small-visSmall/29_69.jpg,Big-visBig/29_03.jpg,m,654
202,critical,big,incongruent,TRUE,977,Small-visBig/22_65.jpg,Big-visSmall/22_26.jpg,c,657
202,critical,big,congruent,TRUE,573,Small-visSmall/02_44.jpg,Big-visBig/02_08.jpg,m,660
202,critical,big,congruent,TRUE,417,Small-visSmall/21_52.jpg,Big-visBig/21_31.jpg,m,663
202,critical,big,congruent,TRUE,603,Small-visSmall/28_47.jpg,Big-visBig/28_12.jpg,m,666
202,critical,big,incongruent,TRUE,527,Big-visSmall/11_40.jpg,Small-visBig/11_71.jpg,m,669
202,critical,big,incongruent,TRUE,509,Big-visSmall/04_05.jpg,Small-visBig/04_48.jpg,m,672
202,critical,big,congruent,TRUE,492,Big-visBig/10_09.jpg,Small-visSmall/10_59.jpg,c,675
202,critical,big,congruent,TRUE,480,Big-visBig/17_21.jpg,Small-visSmall/17_80.jpg,c,678
202,critical,big,incongruent,TRUE,464,Small-visBig/11_71.jpg,Big-visSmall/11_40.jpg,c,681
202,critical,big,congruent,TRUE,312,Big-visBig/23_16.jpg,Small-visSmall/23_70.jpg,c,684
202,critical,big,incongruent,TRUE,2270,Big-visSmall/14_34.jpg,Small-visBig/14_67.jpg,m,687
202,critical,big,incongruent,TRUE,428,Big-visSmall/16_28.jpg,Small-visBig/16_73.jpg,m,690
202,critical,big,congruent,TRUE,395,Small-visSmall/06_43.jpg,Big-visBig/06_02.jpg,m,693
202,critical,big,incongruent,TRUE,705,Big-visSmall/09_15.jpg,Small-visBig/09_64.jpg,m,696
202,critical,big,incongruent,TRUE,739,Small-visBig/09_64.jpg,Big-visSmall/09_15.jpg,c,699
202,critical,big,incongruent,TRUE,928,Big-visSmall/08_35.jpg,Small-visBig/08_45.jpg,m,702
202,critical,big,incongruent,TRUE,905,Big-visSmall/24_06.jpg,Small-visBig/24_61.jpg,m,705
202,critical,big,congruent,TRUE,22773,Small-visSmall/17_80.jpg,Big-visBig/17_21.jpg,m,708
202,critical,big,congruent,TRUE,516,Small-visSmall/22_65.jpg,Big-visBig/22_26.jpg,m,711
202,critical,big,congruent,TRUE,766,Small-visSmall/07_51.jpg,Big-visBig/07_33.jpg,m,714
202,critical,big,incongruent,TRUE,907,Small-visBig/24_61.jpg,Big-visSmall/24_06.jpg,c,717
202,critical,big,incongruent,FALSE,448,Small-visBig/30_50.jpg,Big-visSmall/30_20.jpg,m,720
202,critical,big,congruent,TRUE,784,Small-visSmall/23_70.jpg,Big-visBig/23_16.jpg,m,723
202,critical,big,incongruent,TRUE,596,Small-visBig/17_80.jpg,Big-visSmall/17_21.jpg,c,726
202,critical,big,congruent,TRUE,560,Big-visBig/28_12.jpg,Small-visSmall/28_47.jpg,c,729
202,critical,big,congruent,TRUE,591,Small-visSmall/15_72.jpg,Big-visBig/15_29.jpg,m,732
202,critical,big,incongruent,TRUE,513,Small-visBig/04_48.jpg,Big-visSmall/04_05.jpg,c,735
202,critical,big,congruent,TRUE,447,Small-visSmall/16_73.jpg,Big-visBig/16_28.jpg,m,738
202,critical,big,congruent,TRUE,515,Big-visBig/11_40.jpg,Small-visSmall/11_71.jpg,c,741
202,critical,big,incongruent,TRUE,516,Big-visSmall/10_09.jpg,Small-visBig/10_59.jpg,m,744
202,critical,big,congruent,TRUE,433,Big-visBig/15_29.jpg,Small-visSmall/15_72.jpg,c,747
202,critical,big,incongruent,TRUE,489,Big-visSmall/03_36.jpg,Small-visBig/03_57.jpg,m,750
202,critical,big,congruent,TRUE,35710,Big-visBig/09_15.jpg,Small-visSmall/09_64.jpg,c,753
202,critical,big,incongruent,TRUE,515,Small-visBig/25_56.jpg,Big-visSmall/25_10.jpg,c,756
202,critical,small,incongruent,TRUE,989,Big-visSmall/16_28.jpg,Small-visBig/15_72.jpg,c,761
202,critical,small,congruent,TRUE,583,Big-visBig/01_07.jpg,Small-visSmall/03_57.jpg,m,764
202,critical,small,congruent,TRUE,413,Big-visBig/17_21.jpg,Small-visSmall/17_80.jpg,m,767
202,critical,small,incongruent,TRUE,428,Big-visSmall/08_35.jpg,Small-visBig/27_63.jpg,c,770
202,critical,small,congruent,TRUE,485,Big-visBig/28_12.jpg,Small-visSmall/02_44.jpg,m,773
202,critical,small,incongruent,TRUE,459,Big-visSmall/29_03.jpg,Small-visBig/08_45.jpg,c,776
202,critical,small,incongruent,TRUE,824,Big-visSmall/22_26.jpg,Small-visBig/12_58.jpg,c,779
202,critical,small,congruent,TRUE,522,Big-visBig/30_20.jpg,Small-visSmall/14_67.jpg,m,782
202,critical,small,incongruent,TRUE,424,Big-visSmall/02_08.jpg,Small-visBig/04_48.jpg,c,785
202,critical,small,congruent,TRUE,365,Small-visSmall/29_69.jpg,Big-visBig/25_10.jpg,c,788
202,critical,small,incongruent,TRUE,350,Big-visSmall/07_33.jpg,Small-visBig/05_54.jpg,c,791
202,critical,small,incongruent,TRUE,405,Big-visSmall/12_13.jpg,Small-visBig/10_59.jpg,c,794
202,critical,small,congruent,TRUE,98882,Big-visBig/16_28.jpg,Small-visSmall/15_72.jpg,m,797
202,critical,small,congruent,TRUE,598,Small-visSmall/08_45.jpg,Big-visBig/29_03.jpg,c,800
202,critical,small,incongruent,TRUE,924,Big-visSmall/04_05.jpg,Small-visBig/20_79.jpg,c,803
202,critical,small,incongruent,TRUE,488,Small-visBig/11_71.jpg,Big-visSmall/26_32.jpg,m,806
202,critical,small,incongruent,TRUE,549,Small-visBig/09_64.jpg,Big-visSmall/14_34.jpg,m,809
202,critical,small,congruent,TRUE,492,Small-visSmall/10_59.jpg,Big-visBig/12_13.jpg,c,812
202,critical,small,congruent,TRUE,33137,Big-visBig/22_26.jpg,Small-visSmall/12_58.jpg,m,815
202,critical,small,congruent,TRUE,410,Big-visBig/04_05.jpg,Small-visSmall/20_79.jpg,m,818
202,critical,small,incongruent,TRUE,484,Small-visBig/01_78.jpg,Big-visSmall/21_31.jpg,m,821
202,critical,small,incongruent,TRUE,491,Big-visSmall/01_07.jpg,Small-visBig/03_57.jpg,c,824
202,critical,small,incongruent,FALSE,362,Big-visSmall/10_09.jpg,Small-visBig/13_77.jpg,m,827
202,critical,small,congruent,TRUE,477,Small-visSmall/25_56.jpg,Big-visBig/24_06.jpg,c,830
202,critical,small,incongruent,TRUE,545,Small-visBig/22_65.jpg,Big-visSmall/15_29.jpg,m,833
202,critical,small,incongruent,TRUE,420,Big-visSmall/30_20.jpg,Small-visBig/14_67.jpg,c,836
202,critical,small,incongruent,TRUE,553,Big-visSmall/28_12.jpg,Small-visBig/02_44.jpg,c,839
202,critical,small,congruent,TRUE,544,Big-visBig/06_02.jpg,Small-visSmall/30_50.jpg,m,842
202,critical,small,congruent,TRUE,384,Big-visBig/24_06.jpg,Small-visSmall/25_56.jpg,m,845
202,critical,small,congruent,TRUE,516,Small-visSmall/03_57.jpg,Big-visBig/01_07.jpg,c,848
202,critical,small,congruent,TRUE,565,Small-visSmall/24_61.jpg,Big-visBig/23_16.jpg,c,851
202,critical,small,congruent,TRUE,1653,Small-visSmall/09_64.jpg,Big-visBig/14_34.jpg,c,854
202,critical,small,congruent,TRUE,541,Small-visSmall/14_67.jpg,Big-visBig/30_20.jpg,c,857
202,critical,small,incongruent,FALSE,489,Small-visBig/26_42.jpg,Big-visSmall/19_17.jpg,c,860
202,critical,small,congruent,TRUE,964,Big-visBig/07_33.jpg,Small-visSmall/05_54.jpg,m,863
202,critical,small,congruent,TRUE,511,Big-visBig/20_38.jpg,Small-visSmall/21_52.jpg,m,866
202,critical,small,incongruent,TRUE,397,Small-visBig/12_58.jpg,Big-visSmall/22_26.jpg,m,869
202,critical,small,congruent,TRUE,3217,Small-visSmall/21_52.jpg,Big-visBig/20_38.jpg,c,872
202,critical,small,incongruent,TRUE,580,Small-visBig/17_80.jpg,Big-visSmall/17_21.jpg,m,875
202,critical,small,incongruent,TRUE,60386,Big-visSmall/18_23.jpg,Small-visBig/28_47.jpg,c,878
202,critical,small,incongruent,TRUE,449,Big-visSmall/26_32.jpg,Small-visBig/11_71.jpg,c,881
202,critical,small,congruent,TRUE,327,Small-visSmall/12_58.jpg,Big-visBig/22_26.jpg,c,884
202,critical,small,incongruent,FALSE,323,Small-visBig/24_61.jpg,Big-visSmall/23_16.jpg,c,887
202,critical,small,congruent,TRUE,474,Small-visSmall/01_78.jpg,Big-visBig/21_31.jpg,c,890
202,critical,small,incongruent,TRUE,1212,Big-visSmall/21_31.jpg,Small-visBig/01_78.jpg,c,893
202,critical,small,incongruent,TRUE,106340,Small-visBig/27_63.jpg,Big-visSmall/08_35.jpg,m,896
202,critical,small,incongruent,TRUE,485,Big-visSmall/05_25.jpg,Small-visBig/18_76.jpg,c,899
202,critical,small,congruent,TRUE,448,Big-visBig/25_10.jpg,Small-visSmall/29_69.jpg,m,902
202,critical,small,incongruent,TRUE,488,Small-visBig/05_54.jpg,Big-visSmall/07_33.jpg,m,905
202,critical,small,congruent,TRUE,563,Big-visBig/23_16.jpg,Small-visSmall/24_61.jpg,m,908
202,critical,small,congruent,TRUE,6945,Big-visBig/08_35.jpg,Small-visSmall/27_63.jpg,m,911
202,critical,small,incongruent,TRUE,515,Small-visBig/25_56.jpg,Big-visSmall/24_06.jpg,m,914
202,critical,small,congruent,TRUE,408,Big-visBig/10_09.jpg,Small-visSmall/13_77.jpg,m,917
202,critical,small,incongruent,FALSE,26145,Big-visSmall/06_02.jpg,Small-visBig/30_50.jpg,m,920
202,critical,small,congruent,TRUE,411,Small-visSmall/15_72.jpg,Big-visBig/16_28.jpg,c,923
202,critical,small,incongruent,TRUE,455,Small-visBig/06_43.jpg,Big-visSmall/03_36.jpg,m,926
202,critical,small,congruent,TRUE,537,Big-visBig/27_18.jpg,Small-visSmall/07_51.jpg,m,929
202,critical,small,congruent,TRUE,399,Small-visSmall/27_63.jpg,Big-visBig/08_35.jpg,c,932
202,critical,small,congruent,TRUE,812,Small-visSmall/04_48.jpg,Big-visBig/02_08.jpg,c,935
202,critical,small,incongruent,TRUE,423,Big-visSmall/03_36.jpg,Small-visBig/06_43.jpg,c,938
202,critical,small,incongruent,TRUE,322,Big-visSmall/15_29.jpg,Small-visBig/22_65.jpg,c,941
202,critical,small,congruent,TRUE,373,Small-visSmall/07_51.jpg,Big-visBig/27_18.jpg,c,944
202,critical,small,incongruent,TRUE,357,Big-visSmall/14_34.jpg,Small-visBig/09_64.jpg,c,947
202,critical,small,incongruent,TRUE,336,Big-visSmall/24_06.jpg,Small-visBig/25_56.jpg,c,950
202,critical,small,congruent,TRUE,495,Small-visSmall/16_73.jpg,Big-visBig/09_15.jpg,c,953
202,critical,small,congruent,TRUE,304,Small-visSmall/28_47.jpg,Big-visBig/18_23.jpg,c,956
202,critical,small,incongruent,FALSE,243,Small-visBig/14_67.jpg,Big-visSmall/30_20.jpg,c,959
202,critical,small,incongruent,TRUE,669,Small-visBig/29_69.jpg,Big-visSmall/25_10.jpg,m,962
202,critical,small,congruent,TRUE,526,Small-visSmall/11_71.jpg,Big-visBig/26_32.jpg,c,965
202,critical,small,incongruent,TRUE,3046,Big-visSmall/17_21.jpg,Small-visBig/17_80.jpg,c,968
202,critical,small,incongruent,TRUE,1242,Big-visSmall/20_38.jpg,Small-visBig/21_52.jpg,c,971
202,critical,small,congruent,TRUE,524,Big-visBig/21_31.jpg,Small-visSmall/01_78.jpg,m,974
202,critical,small,congruent,TRUE,553,Small-visSmall/05_54.jpg,Big-visBig/07_33.jpg,c,977
202,critical,small,congruent,TRUE,616,Small-visSmall/22_65.jpg,Big-visBig/15_29.jpg,c,980
202,critical,small,incongruent,FALSE,282,Small-visBig/15_72.jpg,Big-visSmall/16_28.jpg,c,983
202,critical,small,congruent,TRUE,530,Big-visBig/03_36.jpg,Small-visSmall/06_43.jpg,m,986
202,critical,small,incongruent,TRUE,395,Small-visBig/04_48.jpg,Big-visSmall/02_08.jpg,m,989
202,critical,small,congruent,TRUE,480,Small-visSmall/18_76.jpg,Big-visBig/05_25.jpg,c,992
202,critical,small,incongruent,TRUE,34599,Small-visBig/13_77.jpg,Big-visSmall/10_09.jpg,m,995
202,critical,small,incongruent,TRUE,511,Big-visSmall/13_19.jpg,Small-visBig/23_70.jpg,c,998
202,critical,small,congruent,TRUE,437,Small-visSmall/20_79.jpg,Big-visBig/04_05.jpg,c,1001
202,critical,small,incongruent,TRUE,936,Big-visSmall/19_17.jpg,Small-visBig/26_42.jpg,c,1004
202,critical,small,incongruent,TRUE,465,Small-visBig/10_59.jpg,Big-visSmall/12_13.jpg,m,1007
202,critical,small,incongruent,TRUE,568,Big-visSmall/23_16.jpg,Small-visBig/24_61.jpg,c,1010
202,critical,small,congruent,TRUE,507,Small-visSmall/06_43.jpg,Big-visBig/03_36.jpg,c,1013
202,critical,small,congruent,TRUE,564,Big-visBig/09_15.jpg,Small-visSmall/16_73.jpg,m,1016
202,critical,small,congruent,TRUE,705,Big-visBig/29_03.jpg,Small-visSmall/08_45.jpg,m,1019
202,critical,small,incongruent,TRUE,500,Small-visBig/08_45.jpg,Big-visSmall/29_03.jpg,m,1022
202,critical,small,congruent,TRUE,444,Big-visBig/19_17.jpg,Small-visSmall/26_42.jpg,m,1025
202,critical,small,incongruent,TRUE,424,Small-visBig/19_41.jpg,Big-visSmall/11_40.jpg,m,1028
202,critical,small,incongruent,TRUE,473,Small-visBig/16_73.jpg,Big-visSmall/09_15.jpg,m,1031
202,critical,small,congruent,TRUE,422,Big-visBig/14_34.jpg,Small-visSmall/09_64.jpg,m,1034
202,critical,small,congruent,TRUE,378,Big-visBig/12_13.jpg,Small-visSmall/10_59.jpg,m,1037
202,critical,small,congruent,TRUE,525,Small-visSmall/19_41.jpg,Big-visBig/11_40.jpg,c,1040
202,critical,small,congruent,TRUE,349,Small-visSmall/02_44.jpg,Big-visBig/28_12.jpg,c,1043
202,critical,small,congruent,FALSE,662,Small-visSmall/23_70.jpg,Big-visBig/13_19.jpg,m,1046
202,critical,small,congruent,TRUE,390,Small-visSmall/17_80.jpg,Big-visBig/17_21.jpg,c,1049
202,critical,small,incongruent,TRUE,649,Small-visBig/02_44.jpg,Big-visSmall/28_12.jpg,m,1052
202,critical,small,congruent,TRUE,456,Big-visBig/05_25.jpg,Small-visSmall/18_76.jpg,m,1055
202,critical,small,congruent,TRUE,657,Big-visBig/26_32.jpg,Small-visSmall/11_71.jpg,m,1058
202,critical,small,congruent,TRUE,9542,Big-visBig/13_19.jpg,Small-visSmall/23_70.jpg,m,1061
202,critical,small,congruent,TRUE,462,Big-visBig/18_23.jpg,Small-visSmall/28_47.jpg,m,1064
202,critical,small,incongruent,TRUE,392,Small-visBig/18_76.jpg,Big-visSmall/05_25.jpg,m,1067
202,critical,small,incongruent,TRUE,1435,Small-visBig/28_47.jpg,Big-visSmall/18_23.jpg,m,1070
202,critical,small,incongruent,TRUE,627,Big-visSmall/25_10.jpg,Small-visBig/29_69.jpg,c,1073
202,critical,small,incongruent,FALSE,376,Small-visBig/30_50.jpg,Big-visSmall/06_02.jpg,c,1076
202,critical,small,congruent,TRUE,403,Small-visSmall/13_77.jpg,Big-visBig/10_09.jpg,c,1079
202,critical,small,congruent,TRUE,600,Big-visBig/15_29.jpg,Small-visSmall/22_65.jpg,m,1082
202,critical,small,incongruent,TRUE,79075,Small-visBig/03_57.jpg,Big-visSmall/01_07.jpg,m,1085
202,critical,small,incongruent,TRUE,582,Big-visSmall/11_40.jpg,Small-visBig/19_41.jpg,c,1088
202,critical,small,congruent,TRUE,597,Small-visSmall/26_42.jpg,Big-visBig/19_17.jpg,c,1091
202,critical,small,incongruent,TRUE,310,Big-visSmall/09_15.jpg,Small-visBig/16_73.jpg,c,1094
202,critical,small,congruent,TRUE,433,Big-visBig/02_08.jpg,Small-visSmall/04_48.jpg,m,1097
202,critical,small,incongruent,TRUE,421,Big-visSmall/27_18.jpg,Small-visBig/07_51.jpg,c,1100
202,critical,small,incongruent,TRUE,492,Small-visBig/21_52.jpg,Big-visSmall/20_38.jpg,m,1103
202,critical,small,incongruent,TRUE,490,Small-visBig/20_79.jpg,Big-visSmall/04_05.jpg,m,1106
202,critical,small,incongruent,TRUE,332,Small-visBig/23_70.jpg,Big-visSmall/13_19.jpg,m,1109
202,critical,small,congruent,TRUE,548,Small-visSmall/30_50.jpg,Big-visBig/06_02.jpg,c,1112
202,critical,small,congruent,TRUE,369,Big-visBig/11_40.jpg,Small-visSmall/19_41.jpg,m,1115
202,critical,small,incongruent,TRUE,434,Small-visBig/07_51.jpg,Big-visSmall/27_18.jpg,m,1118
202,critical,big,incongruent,TRUE,774,Small-visBig/02_44.jpg,Big-visSmall/28_12.jpg,c,1123
202,critical,big,incongruent,TRUE,421,Big-visSmall/08_35.jpg,Small-visBig/27_63.jpg,m,1126
202,critical,big,incongruent,TRUE,332,Big-visSmall/21_31.jpg,Small-visBig/01_78.jpg,m,1129
202,critical,big,congruent,TRUE,350,Small-visSmall/12_58.jpg,Big-visBig/22_26.jpg,m,1132
202,critical,big,congruent,TRUE,416,Big-visBig/07_33.jpg,Small-visSmall/05_54.jpg,c,1135
202,critical,big,congruent,TRUE,373,Small-visSmall/14_67.jpg,Big-visBig/30_20.jpg,m,1138
202,critical,big,incongruent,FALSE,524,Big-visSmall/19_17.jpg,Small-visBig/26_42.jpg,c,1141
202,critical,big,congruent,TRUE,433,Small-visSmall/29_69.jpg,Big-visBig/25_10.jpg,m,1144
202,critical,big,congruent,TRUE,442,Small-visSmall/16_73.jpg,Big-visBig/09_15.jpg,m,1147
202,critical,big,congruent,TRUE,433,Big-visBig/26_32.jpg,Small-visSmall/11_71.jpg,c,1150
202,critical,big,congruent,TRUE,505,Small-visSmall/22_65.jpg,Big-visBig/15_29.jpg,m,1153
202,critical,big,incongruent,FALSE,462,Small-visBig/29_69.jpg,Big-visSmall/25_10.jpg,m,1156
202,critical,big,incongruent,TRUE,779,Big-visSmall/25_10.jpg,Small-visBig/29_69.jpg,m,1159
202,critical,big,incongruent,TRUE,1183,Small-visBig/25_56.jpg,Big-visSmall/24_06.jpg,c,1162
202,critical,big,incongruent,TRUE,445,Big-visSmall/28_12.jpg,Small-visBig/02_44.jpg,m,1165
202,critical,big,incongruent,TRUE,445,Small-visBig/18_76.jpg,Big-visSmall/05_25.jpg,c,1168
202,critical,big,incongruent,TRUE,476,Small-visBig/30_50.jpg,Big-visSmall/06_02.jpg,c,1171
202,critical,big,incongruent,TRUE,623,Big-visSmall/09_15.jpg,Small-visBig/16_73.jpg,m,1174
202,critical,big,congruent,FALSE,352,Small-visSmall/25_56.jpg,Big-visBig/24_06.jpg,c,1177
202,critical,big,incongruent,TRUE,573,Small-visBig/15_72.jpg,Big-visSmall/16_28.jpg,c,1180
202,critical,big,incongruent,TRUE,1114,Small-visBig/14_67.jpg,Big-visSmall/30_20.jpg,c,1183
202,critical,big,congruent,TRUE,518,Small-visSmall/13_77.jpg,Big-visBig/10_09.jpg,m,1186
202,critical,big,congruent,TRUE,502,Small-visSmall/17_80.jpg,Big-visBig/17_21.jpg,m,1189
202,critical,big,incongruent,TRUE,713,Small-visBig/28_47.jpg,Big-visSmall/18_23.jpg,c,1192
202,critical,big,congruent,TRUE,551,Small-visSmall/27_63.jpg,Big-visBig/08_35.jpg,m,1195
202,critical,big,congruent,TRUE,633,Small-visSmall/23_70.jpg,Big-visBig/13_19.jpg,m,1198
202,critical,big,incongruent,TRUE,546,Big-visSmall/23_16.jpg,Small-visBig/24_61.jpg,m,1201
202,critical,big,incongruent,TRUE,1217,Small-visBig/06_43.jpg,Big-visSmall/03_36.jpg,c,1204
202,critical,big,incongruent,TRUE,346,Big-visSmall/26_32.jpg,Small-visBig/11_71.jpg,m,1207
202,critical,big,congruent,TRUE,1345,Small-visSmall/30_50.jpg,Big-visBig/06_02.jpg,m,1210
202,critical,big,incongruent,TRUE,577,Big-visSmall/16_28.jpg,Small-visBig/15_72.jpg,m,1213
202,critical,big,incongruent,TRUE,525,Big-visSmall/18_23.jpg,Small-visBig/28_47.jpg,m,1216
202,critical,big,congruent,TRUE,386,Big-visBig/14_34.jpg,Small-visSmall/09_64.jpg,c,1219
202,critical,big,congruent,TRUE,494,Big-visBig/02_08.jpg,Small-visSmall/04_48.jpg,c,1222
202,critical,big,incongruent,TRUE,553,Small-visBig/20_79.jpg,Big-visSmall/04_05.jpg,c,1225
202,critical,big,incongruent,TRUE,29100,Big-visSmall/06_02.jpg,Small-visBig/30_50.jpg,m,1228
202,critical,big,congruent,TRUE,343,Big-visBig/10_09.jpg,Small-visSmall/13_77.jpg,c,1231
202,critical,big,incongruent,TRUE,518,Small-visBig/19_41.jpg,Big-visSmall/11_40.jpg,c,1234
202,critical,big,incongruent,TRUE,480,Small-visBig/08_45.jpg,Big-visSmall/29_03.jpg,c,1237
202,critical,big,congruent,TRUE,486,Small-visSmall/03_57.jpg,Big-visBig/01_07.jpg,m,1240
202,critical,big,incongruent,TRUE,318,Big-visSmall/01_07.jpg,Small-visBig/03_57.jpg,m,1243
202,critical,big,congruent,TRUE,382,Small-visSmall/26_42.jpg,Big-visBig/19_17.jpg,m,1246
202,critical,big,congruent,TRUE,404,Small-visSmall/21_52.jpg,Big-visBig/20_38.jpg,m,1249
202,critical,big,congruent,TRUE,333,Big-visBig/04_05.jpg,Small-visSmall/20_79.jpg,c,1252
202,critical,big,incongruent,TRUE,438,Big-visSmall/04_05.jpg,Small-visBig/20_79.jpg,m,1255
202,critical,big,congruent,TRUE,376,Big-visBig/03_36.jpg,Small-visSmall/06_43.jpg,c,1258
202,critical,big,congruent,TRUE,460,Small-visSmall/18_76.jpg,Big-visBig/05_25.jpg,m,1261
202,critical,big,incongruent,TRUE,353,Small-visBig/21_52.jpg,Big-visSmall/20_38.jpg,c,1264
202,critical,big,incongruent,TRUE,390,Big-visSmall/13_19.jpg,Small-visBig/23_70.jpg,m,1267
202,critical,big,congruent,TRUE,307,Big-visBig/16_28.jpg,Small-visSmall/15_72.jpg,c,1270
202,critical,big,congruent,TRUE,431,Big-visBig/28_12.jpg,Small-visSmall/02_44.jpg,c,1273
202,critical,big,incongruent,TRUE,494,Big-visSmall/29_03.jpg,Small-visBig/08_45.jpg,m,1276
202,critical,big,congruent,TRUE,411,Big-visBig/21_31.jpg,Small-visSmall/01_78.jpg,c,1279
202,critical,big,incongruent,TRUE,323,Small-visBig/05_54.jpg,Big-visSmall/07_33.jpg,c,1282
202,critical,big,congruent,TRUE,358,Small-visSmall/20_79.jpg,Big-visBig/04_05.jpg,m,1285
202,critical,big,incongruent,TRUE,301,Small-visBig/27_63.jpg,Big-visSmall/08_35.jpg,c,1288
202,critical,big,incongruent,TRUE,628,Big-visSmall/20_38.jpg,Small-visBig/21_52.jpg,m,1291
202,critical,big,congruent,TRUE,642,Small-visSmall/07_51.jpg,Big-visBig/27_18.jpg,m,1294
202,critical,big,incongruent,TRUE,459,Big-visSmall/07_33.jpg,Small-visBig/05_54.jpg,m,1297
202,critical,big,incongruent,TRUE,364,Small-visBig/17_80.jpg,Big-visSmall/17_21.jpg,c,1300
202,critical,big,congruent,FALSE,298,Small-visSmall/09_64.jpg,Big-visBig/14_34.jpg,c,1303
202,critical,big,incongruent,TRUE,462,Small-visBig/03_57.jpg,Big-visSmall/01_07.jpg,c,1306
202,critical,big,incongruent,TRUE,544,Small-visBig/13_77.jpg,Big-visSmall/10_09.jpg,c,1309
202,critical,big,incongruent,TRUE,714,Small-visBig/09_64.jpg,Big-visSmall/14_34.jpg,c,1312
202,critical,big,incongruent,TRUE,367,Big-visSmall/17_21.jpg,Small-visBig/17_80.jpg,m,1315
202,critical,big,congruent,TRUE,539,Big-visBig/27_18.jpg,Small-visSmall/07_51.jpg,c,1318
202,critical,big,congruent,TRUE,417,Big-visBig/13_19.jpg,Small-visSmall/23_70.jpg,c,1321
202,critical,big,congruent,TRUE,44454,Big-visBig/29_03.jpg,Small-visSmall/08_45.jpg,c,1324
202,critical,big,congruent,TRUE,462,Big-visBig/18_23.jpg,Small-visSmall/28_47.jpg,c,1327
202,critical,big,incongruent,TRUE,462,Big-visSmall/10_09.jpg,Small-visBig/13_77.jpg,m,1330
202,critical,big,congruent,TRUE,387,Big-visBig/12_13.jpg,Small-visSmall/10_59.jpg,c,1333
202,critical,big,incongruent,TRUE,500,Small-visBig/01_78.jpg,Big-visSmall/21_31.jpg,c,1336
202,critical,big,congruent,TRUE,427,Big-visBig/23_16.jpg,Small-visSmall/24_61.jpg,c,1339
202,critical,big,congruent,TRUE,984,Small-visSmall/11_71.jpg,Big-visBig/26_32.jpg,m,1342
202,critical,big,congruent,TRUE,415,Big-visBig/20_38.jpg,Small-visSmall/21_52.jpg,c,1345
202,critical,big,incongruent,TRUE,891,Big-visSmall/11_40.jpg,Small-visBig/19_41.jpg,m,1348
202,critical,big,incongruent,TRUE,364,Big-visSmall/02_08.jpg,Small-visBig/04_48.jpg,m,1351
202,critical,big,congruent,TRUE,336,Big-visBig/01_07.jpg,Small-visSmall/03_57.jpg,c,1354
202,critical,big,incongruent,TRUE,443,Small-visBig/07_51.jpg,Big-visSmall/27_18.jpg,c,1357
202,critical,big,congruent,TRUE,10054,Big-visBig/06_02.jpg,Small-visSmall/30_50.jpg,c,1360
202,critical,big,incongruent,TRUE,552,Big-visSmall/12_13.jpg,Small-visBig/10_59.jpg,m,1363
202,critical,big,congruent,TRUE,736,Small-visSmall/08_45.jpg,Big-visBig/29_03.jpg,m,1366
202,critical,big,incongruent,TRUE,588,Big-visSmall/03_36.jpg,Small-visBig/06_43.jpg,m,1369
202,critical,big,congruent,TRUE,391,Big-visBig/17_21.jpg,Small-visSmall/17_80.jpg,c,1372
202,critical,big,incongruent,TRUE,552,Small-visBig/23_70.jpg,Big-visSmall/13_19.jpg,c,1375
202,critical,big,incongruent,TRUE,590,Small-visBig/16_73.jpg,Big-visSmall/09_15.jpg,c,1378
202,critical,big,incongruent,TRUE,558,Big-visSmall/30_20.jpg,Small-visBig/14_67.jpg,m,1381
202,critical,big,congruent,TRUE,97996,Small-visSmall/06_43.jpg,Big-visBig/03_36.jpg,m,1384
202,critical,big,incongruent,TRUE,436,Big-visSmall/27_18.jpg,Small-visBig/07_51.jpg,m,1387
202,critical,big,incongruent,TRUE,693,Big-visSmall/22_26.jpg,Small-visBig/12_58.jpg,m,1390
202,critical,big,congruent,TRUE,429,Small-visSmall/24_61.jpg,Big-visBig/23_16.jpg,m,1393
202,critical,big,incongruent,FALSE,398,Small-visBig/12_58.jpg,Big-visSmall/22_26.jpg,m,1396
202,critical,big,congruent,TRUE,113396,Small-visSmall/19_41.jpg,Big-visBig/11_40.jpg,m,1399
202,critical,big,congruent,TRUE,374,Small-visSmall/05_54.jpg,Big-visBig/07_33.jpg,m,1402
202,critical,big,congruent,TRUE,434,Big-visBig/11_40.jpg,Small-visSmall/19_41.jpg,c,1405
202,critical,big,congruent,TRUE,439,Big-visBig/24_06.jpg,Small-visSmall/25_56.jpg,c,1408
202,critical,big,congruent,TRUE,203384,Big-visBig/08_35.jpg,Small-visSmall/27_63.jpg,c,1411
202,critical,big,congruent,TRUE,349,Small-visSmall/28_47.jpg,Big-visBig/18_23.jpg,m,1414
202,critical,big,incongruent,TRUE,406,Small-visBig/10_59.jpg,Big-visSmall/12_13.jpg,c,1417
202,critical,big,incongruent,TRUE,314,Small-visBig/26_42.jpg,Big-visSmall/19_17.jpg,c,1420
202,critical,big,congruent,TRUE,763,Small-visSmall/04_48.jpg,Big-visBig/02_08.jpg,m,1423
202,critical,big,congruent,TRUE,367,Big-visBig/09_15.jpg,Small-visSmall/16_73.jpg,c,1426
202,critical,big,incongruent,TRUE,528,Big-visSmall/14_34.jpg,Small-visBig/09_64.jpg,m,1429
202,critical,big,congruent,TRUE,1711,Big-visBig/15_29.jpg,Small-visSmall/22_65.jpg,c,1432
202,critical,big,incongruent,TRUE,401,Big-visSmall/05_25.jpg,Small-visBig/18_76.jpg,m,1435
202,critical,big,incongruent,TRUE,392,Small-visBig/04_48.jpg,Big-visSmall/02_08.jpg,c,1438
202,critical,big,incongruent,TRUE,456,Big-visSmall/24_06.jpg,Small-visBig/25_56.jpg,m,1441
202,critical,big,incongruent,TRUE,520,Big-visSmall/15_29.jpg,Small-visBig/22_65.jpg,m,1444
202,critical,big,congruent,TRUE,326,Big-visBig/19_17.jpg,Small-visSmall/26_42.jpg,c,1447
202,critical,big,congruent,TRUE,369,Big-visBig/30_20.jpg,Small-visSmall/14_67.jpg,c,1450
202,critical,big,congruent,TRUE,411,Big-visBig/22_26.jpg,Small-visSmall/12_58.jpg,c,1453
202,critical,big,congruent,TRUE,421,Small-visSmall/15_72.jpg,Big-visBig/16_28.jpg,m,1456
202,critical,big,congruent,TRUE,371,Small-visSmall/01_78.jpg,Big-visBig/21_31.jpg,m,1459
202,critical,big,congruent,TRUE,359,Big-visBig/25_10.jpg,Small-visSmall/29_69.jpg,c,1462
202,critical,big,congruent,TRUE,321,Big-visBig/05_25.jpg,Small-visSmall/18_76.jpg,c,1465
202,critical,big,incongruent,FALSE,342,Small-visBig/11_71.jpg,Big-visSmall/26_32.jpg,m,1468
202,critical,big,congruent,TRUE,3756,Small-visSmall/10_59.jpg,Big-visBig/12_13.jpg,m,1471
202,critical,big,incongruent,TRUE,393,Small-visBig/22_65.jpg,Big-visSmall/15_29.jpg,c,1474
202,critical,big,incongruent,TRUE,638,Small-visBig/24_61.jpg,Big-visSmall/23_16.jpg,c,1477
202,critical,big,congruent,TRUE,434,Small-visSmall/02_44.jpg,Big-visBig/28_12.jpg,m,1480
716,practice,big,incongruent,TRUE,11625,Big-visSmall/01_07.jpg,Small-visBig/20_79.jpg,m,4
716,practice,big,congruent,TRUE,880,Big-visBig/28_12.jpg,Small-visSmall/01_78.jpg,c,7
716,practice,big,incongruent,TRUE,624,Big-visSmall/29_03.jpg,Small-visBig/22_65.jpg,m,10
716,practice,big,congruent,TRUE,557,Big-visBig/04_05.jpg,Small-visSmall/18_76.jpg,c,13
716,practice,big,congruent,TRUE,1169,Big-visBig/02_08.jpg,Small-visSmall/29_69.jpg,c,16
716,practice,small,incongruent,TRUE,612,Big-visSmall/29_03.jpg,Small-visBig/22_65.jpg,c,20
716,practice,small,incongruent,TRUE,466,Small-visBig/06_43.jpg,Big-visSmall/27_18.jpg,m,23
716,practice,small,incongruent,TRUE,486,Big-visSmall/08_35.jpg,Small-visBig/17_80.jpg,c,26
716,practice,small,congruent,TRUE,498,Big-visBig/11_40.jpg,Small-visSmall/24_61.jpg,m,29
716,practice,small,incongruent,TRUE,492,Small-visBig/20_79.jpg,Big-visSmall/01_07.jpg,m,32
716,critical,big,incongruent,TRUE,694,Big-visSmall/20_38.jpg,Small-visBig/20_79.jpg,m,37
716,critical,big,incongruent,TRUE,552,Small-visBig/05_54.jpg,Big-visSmall/05_25.jpg,c,40
716,critical,big,incongruent,TRUE,967,Small-visBig/03_57.jpg,Big-visSmall/03_36.jpg,c,43
716,critical,big,congruent,TRUE,807,Big-visBig/08_35.jpg,Small-visSmall/08_45.jpg,c,46
716,critical,big,incongruent,TRUE,793,Small-visBig/27_63.jpg,Big-visSmall/27_18.jpg,c,49
716,critical,big,congruent,TRUE,1114,Big-visBig/16_28.jpg,Small-visSmall/16_73.jpg,c,52
716,critical,big,congruent,TRUE,578,Small-visSmall/03_57.jpg,Big-visBig/03_36.jpg,m,55
716,critical,big,congruent,TRUE,591,Small-visSmall/07_51.jpg,Big-visBig/07_33.jpg,m,58
716,critical,big,congruent,TRUE,586,Big-visBig/19_17.jpg,Small-visSmall/19_41.jpg,c,61
716,critical,big,incongruent,TRUE,964,Big-visSmall/12_13.jpg,Small-visBig/12_58.jpg,m,64
716,critical,big,incongruent,TRUE,624,Small-visBig/22_65.jpg,Big-visSmall/22_26.jpg,c,67
716,critical,big,congruent,TRUE,793,Small-visSmall/10_59.jpg,Big-visBig/10_09.jpg,m,70
716,critical,big,congruent,TRUE,594,Small-visSmall/17_80.jpg,Big-visBig/17_21.jpg,m,73
716,critical,big,incongruent,TRUE,520,Big-visSmall/25_10.jpg,Small-visBig/25_56.jpg,m,76
716,critical,big,incongruent,TRUE,516,Big-visSmall/07_33.jpg,Small-visBig/07_51.jpg,m,79
716,critical,big,congruent,TRUE,437,Big-visBig/10_09.jpg,Small-visSmall/10_59.jpg,c,82
716,critical,big,congruent,TRUE,647,Big-visBig/15_29.jpg,Small-visSmall/15_72.jpg,c,85
716,critical,big,congruent,TRUE,685,Big-visBig/23_16.jpg,Small-visSmall/23_70.jpg,c,88
716,critical,big,congruent,TRUE,494,Small-visSmall/25_56.jpg,Big-visBig/25_10.jpg,m,91
716,critical,big,congruent,TRUE,489,Small-visSmall/08_45.jpg,Big-visBig/08_35.jpg,m,94
716,critical,big,incongruent,TRUE,740,Big-visSmall/18_23.jpg,Small-visBig/18_76.jpg,m,97
716,critical,big,congruent,TRUE,618,Small-visSmall/27_63.jpg,Big-visBig/27_18.jpg,m,100
716,critical,big,congruent,TRUE,662,Small-visSmall/29_69.jpg,Big-visBig/29_03.jpg,m,103
716,critical,big,congruent,TRUE,1039,Big-visBig/14_34.jpg,Small-visSmall/14_67.jpg,c,106
716,critical,big,incongruent,TRUE,1118,Small-visBig/09_64.jpg,Big-visSmall/09_15.jpg,c,109
716,critical,big,congruent,TRUE,1140,Big-visBig/04_05.jpg,Small-visSmall/04_48.jpg,c,112
716,critical,big,congruent,TRUE,1323,Small-visSmall/14_67.jpg,Big-visBig/14_34.jpg,m,115
716,critical,big,incongruent,TRUE,1606,Small-visBig/10_59.jpg,Big-visSmall/10_09.jpg,c,118
716,critical,big,incongruent,TRUE,568,Small-visBig/08_45.jpg,Big-visSmall/08_35.jpg,c,121
716,critical,big,congruent,TRUE,466,Big-visBig/09_15.jpg,Small-visSmall/09_64.jpg,c,124
716,critical,big,incongruent,TRUE,486,Big-visSmall/28_12.jpg,Small-visBig/28_47.jpg,m,127
716,critical,big,congruent,TRUE,506,Big-visBig/20_38.jpg,Small-visSmall/20_79.jpg,c,130
716,critical,big,incongruent,TRUE,932,Small-visBig/19_41.jpg,Big-visSmall/19_17.jpg,c,133
716,critical,big,incongruent,TRUE,670,Small-visBig/04_48.jpg,Big-visSmall/04_05.jpg,c,136
716,critical,big,congruent,TRUE,519,Small-visSmall/02_44.jpg,Big-visBig/02_08.jpg,m,139
716,critical,big,congruent,TRUE,634,Small-visSmall/09_64.jpg,Big-visBig/09_15.jpg,m,142
716,critical,big,incongruent,TRUE,1163,Big-visSmall/16_28.jpg,Small-visBig/16_73.jpg,m,145
716,critical,big,incongruent,TRUE,532,Small-visBig/16_73.jpg,Big-visSmall/16_28.jpg,c,148
716,critical,big,congruent,TRUE,554,Big-visBig/25_10.jpg,Small-visSmall/25_56.jpg,c,151
716,critical,big,incongruent,TRUE,536,Small-visBig/01_78.jpg,Big-visSmall/01_07.jpg,c,154
716,critical,big,congruent,TRUE,598,Big-visBig/07_33.jpg,Small-visSmall/07_51.jpg,c,157
716,critical,big,incongruent,TRUE,501,Big-visSmall/21_31.jpg,Small-visBig/21_52.jpg,m,160
716,critical,big,congruent,TRUE,832,Small-visSmall/28_47.jpg,Big-visBig/28_12.jpg,m,163
716,critical,big,congruent,TRUE,1093,Big-visBig/02_08.jpg,Small-visSmall/02_44.jpg,c,166
716,critical,big,incongruent,TRUE,1137,Big-visSmall/27_18.jpg,Small-visBig/27_63.jpg,m,169
716,critical,big,incongruent,TRUE,504,Big-visSmall/05_25.jpg,Small-visBig/05_54.jpg,m,172
716,critical,big,incongruent,TRUE,662,Small-visBig/21_52.jpg,Big-visSmall/21_31.jpg,c,175
716,critical,big,incongruent,TRUE,655,Small-visBig/26_42.jpg,Big-visSmall/26_32.jpg,c,178
716,critical,big,incongruent,TRUE,692,Small-visBig/29_69.jpg,Big-visSmall/29_03.jpg,c,181
716,critical,big,congruent,TRUE,608,Big-visBig/26_32.jpg,Small-visSmall/26_42.jpg,c,184
716,critical,big,incongruent,TRUE,648,Big-visSmall/23_16.jpg,Small-visBig/23_70.jpg,m,187
716,critical,big,congruent,TRUE,750,Small-visSmall/26_42.jpg,Big-visBig/26_32.jpg,m,190
716,critical,big,congruent,TRUE,622,Big-visBig/24_06.jpg,Small-visSmall/24_61.jpg,c,193
716,critical,big,incongruent,TRUE,935,Big-visSmall/11_40.jpg,Small-visBig/11_71.jpg,m,196
716,critical,big,incongruent,TRUE,1670,Big-visSmall/09_15.jpg,Small-visBig/09_64.jpg,m,199
716,critical,big,incongruent,TRUE,713,Small-visBig/17_80.jpg,Big-visSmall/17_21.jpg,c,202
716,critical,big,congruent,TRUE,1322,Big-visBig/13_19.jpg,Small-visSmall/13_77.jpg,c,205
716,critical,big,incongruent,TRUE,689,Big-visSmall/04_05.jpg,Small-visBig/04_48.jpg,m,208
716,critical,big,congruent,TRUE,626,Big-visBig/03_36.jpg,Small-visSmall/03_57.jpg,c,211
716,critical,big,incongruent,TRUE,613,Small-visBig/07_51.jpg,Big-visSmall/07_33.jpg,c,214
716,critical,big,incongruent,TRUE,1200,Small-visBig/25_56.jpg,Big-visSmall/25_10.jpg,c,217
716,critical,big,incongruent,TRUE,449,Big-visSmall/19_17.jpg,Small-visBig/19_41.jpg,m,220
716,critical,big,congruent,TRUE,716,Big-visBig/05_25.jpg,Small-visSmall/05_54.jpg,c,223
716,critical,big,incongruent,TRUE,723,Small-visBig/23_70.jpg,Big-visSmall/23_16.jpg,c,226
716,critical,big,congruent,TRUE,989,Small-visSmall/06_43.jpg,Big-visBig/06_02.jpg,m,229
716,critical,big,congruent,TRUE,1137,Big-visBig/21_31.jpg,Small-visSmall/21_52.jpg,c,232
716,critical,big,congruent,TRUE,981,Big-visBig/22_26.jpg,Small-visSmall/22_65.jpg,c,235
716,critical,big,congruent,TRUE,823,Big-visBig/30_20.jpg,Small-visSmall/30_50.jpg,c,238
716,critical,big,congruent,TRUE,797,Small-visSmall/11_71.jpg,Big-visBig/11_40.jpg,m,241
716,critical,big,incongruent,TRUE,540,Small-visBig/13_77.jpg,Big-visSmall/13_19.jpg,c,244
716,critical,big,incongruent,TRUE,464,Small-visBig/02_44.jpg,Big-visSmall/02_08.jpg,c,247
716,critical,big,incongruent,TRUE,835,Small-visBig/28_47.jpg,Big-visSmall/28_12.jpg,c,250
716,critical,big,congruent,TRUE,528,Small-visSmall/04_48.jpg,Big-visBig/04_05.jpg,m,253
716,critical,big,incongruent,TRUE,490,Big-visSmall/24_06.jpg,Small-visBig/24_61.jpg,m,256
716,critical,big,incongruent,TRUE,562,Big-visSmall/13_19.jpg,Small-visBig/13_77.jpg,m,259
716,critical,big,congruent,TRUE,519,Small-visSmall/16_73.jpg,Big-visBig/16_28.jpg,m,262
716,critical,big,congruent,TRUE,427,Big-visBig/12_13.jpg,Small-visSmall/12_58.jpg,c,265
716,critical,big,incongruent,TRUE,418,Big-visSmall/02_08.jpg,Small-visBig/02_44.jpg,m,268
716,critical,big,congruent,TRUE,482,Small-visSmall/30_50.jpg,Big-visBig/30_20.jpg,m,271
716,critical,big,incongruent,TRUE,442,Small-visBig/15_72.jpg,Big-visSmall/15_29.jpg,c,274
716,critical,big,congruent,TRUE,449,Small-visSmall/23_70.jpg,Big-visBig/23_16.jpg,m,277
716,critical,big,incongruent,TRUE,537,Big-visSmall/30_20.jpg,Small-visBig/30_50.jpg,m,280
716,critical,big,incongruent,TRUE,503,Small-visBig/06_43.jpg,Big-visSmall/06_02.jpg,c,283
716,critical,big,incongruent,TRUE,472,Small-visBig/11_71.jpg,Big-visSmall/11_40.jpg,c,286
716,critical,big,incongruent,TRUE,466,Big-visSmall/03_36.jpg,Small-visBig/03_57.jpg,m,289
716,critical,big,incongruent,TRUE,392,Small-visBig/18_76.jpg,Big-visSmall/18_23.jpg,c,292
716,critical,big,congruent,TRUE,460,Big-visBig/06_02.jpg,Small-visSmall/06_43.jpg,c,295
716,critical,big,congruent,TRUE,532,Big-visBig/11_40.jpg,Small-visSmall/11_71.jpg,c,298
716,critical,big,congruent,TRUE,568,Big-visBig/01_07.jpg,Small-visSmall/01_78.jpg,c,301
716,critical,big,incongruent,TRUE,476,Big-visSmall/14_34.jpg,Small-visBig/14_67.jpg,m,304
716,critical,big,congruent,TRUE,527,Small-visSmall/24_61.jpg,Big-visBig/24_06.jpg,m,307
716,critical,big,congruent,TRUE,518,Small-visSmall/20_79.jpg,Big-visBig/20_38.jpg,m,310
716,critical,big,congruent,TRUE,483,Big-visBig/27_18.jpg,Small-visSmall/27_63.jpg,c,313
716,critical,big,incongruent,TRUE,922,Small-visBig/30_50.jpg,Big-visSmall/30_20.jpg,c,316
716,critical,big,incongruent,TRUE,730,Small-visBig/14_67.jpg,Big-visSmall/14_34.jpg,c,319
716,critical,big,congruent,TRUE,480,Small-visSmall/05_54.jpg,Big-visBig/05_25.jpg,m,322
716,critical,big,incongruent,TRUE,441,Small-visBig/20_79.jpg,Big-visSmall/20_38.jpg,c,325
716,critical,big,congruent,TRUE,436,Big-visBig/17_21.jpg,Small-visSmall/17_80.jpg,c,328
716,critical,big,congruent,TRUE,473,Big-visBig/18_23.jpg,Small-visSmall/18_76.jpg,c,331
716,critical,big,congruent,TRUE,486,Small-visSmall/12_58.jpg,Big-visBig/12_13.jpg,m,334
716,critical,big,incongruent,TRUE,409,Small-visBig/24_61.jpg,Big-visSmall/24_06.jpg,c,337
716,critical,big,incongruent,TRUE,402,Big-visSmall/06_02.jpg,Small-visBig/06_43.jpg,m,340
716,critical,big,incongruent,TRUE,430,Small-visBig/12_58.jpg,Big-visSmall/12_13.jpg,c,343
716,critical,big,incongruent,TRUE,635,Big-visSmall/08_35.jpg,Small-visBig/08_45.jpg,m,346
716,critical,big,congruent,TRUE,448,Small-visSmall/22_65.jpg,Big-visBig/22_26.jpg,m,349
716,critical,big,incongruent,TRUE,462,Big-visSmall/17_21.jpg,Small-visBig/17_80.jpg,m,352
716,critical,big,incongruent,TRUE,496,Big-visSmall/01_07.jpg,Small-visBig/01_78.jpg,m,355
716,critical,big,congruent,TRUE,470,Small-visSmall/21_52.jpg,Big-visBig/21_31.jpg,m,358
716,critical,big,incongruent,TRUE,519,Big-visSmall/15_29.jpg,Small-visBig/15_72.jpg,m,361
716,critical,big,congruent,TRUE,479,Small-visSmall/15_72.jpg,Big-visBig/15_29.jpg,m,364
716,critical,big,congruent,TRUE,423,Small-visSmall/18_76.jpg,Big-visBig/18_23.jpg,m,367
716,critical,big,congruent,TRUE,430,Small-visSmall/19_41.jpg,Big-visBig/19_17.jpg,m,370
716,critical,big,incongruent,TRUE,534,Big-visSmall/10_09.jpg,Small-visBig/10_59.jpg,m,373
716,critical,big,incongruent,TRUE,512,Big-visSmall/29_03.jpg,Small-visBig/29_69.jpg,m,376
716,critical,big,congruent,TRUE,723,Small-visSmall/01_78.jpg,Big-visBig/01_07.jpg,m,379
716,critical,big,incongruent,TRUE,515,Big-visSmall/22_26.jpg,Small-visBig/22_65.jpg,m,382
