workerid,proliferate.condition,ask,correct,failed_audio,failed_images,failed_video,group,internal_node_id,left,response,right,rt,stimulus,success,time_elapsed,timeout,trial_index,trial_type,type,error
14,long,,,,,,,0.0-0.0,,0,,1716,"<p> By answering the following questions, you are participating in a study being performed as part of a class by cognitive scientists in the Stanford Department of Psychology. If you have questions about this research, please contact us at vero.boyce@gmail.com. You must be at least 18 years old to participate. Your participation in this research is voluntary. You may decline to answer any or all of the following questions. You may decline further participation, at any time, without adverse consequences. Your anonymity is assured; the researchers who have requested your participation will not receive any information about you other than what you provide here.</p>",,1723,,0,html-button-response,,
14,long,,,[],[],[],,0.0-1.0,,,,,,True,2070,False,1,preload,,
14,long,,,,,,,0.0-2.0-0.0,, ,,3418,"<p> <b> Practice: </b> Which image is <b>bigger</b>?</p> <br> <p> Press <b>c</b> for image on left, and <b>m</b> for image on right as quickly and accurately as possible. </p> <p> Press space to continue.</p>",,5490,,2,html-keyboard-response,,
14,long,,,,,,,0.0-3.0-0.0,,,,,"<div style=""font-size:60px;"">+</div>",,6190,,3,html-keyboard-response,,
14,long,big,True,,,,random,0.0-3.0-1.0,Big-visBig/11_40.jpg,c,Small-visSmall/16_73.jpg,1603,"
            <img src=""Big-visBig/11_40.jpg"" style=""margin-right: 50px""> 
            <img src=""Small-visSmall/16_73.jpg"" style=""margin-left: 50px"">
            ",,7795,,4,html-keyboard-response,congruent,
14,long,,,,,,,0.0-3.0-2.0,,,,,,,8697,,5,html-keyboard-response,,
14,long,,,,,,,0.0-3.0-0.1,,,,,"<div style=""font-size:60px;"">+</div>",,9400,,6,html-keyboard-response,,
14,long,big,True,,,,random,0.0-3.0-1.1,Small-visBig/18_76.jpg,c,Big-visSmall/10_09.jpg,883,"
            <img src=""Small-visBig/18_76.jpg"" style=""margin-right: 50px""> 
            <img src=""Big-visSmall/10_09.jpg"" style=""margin-left: 50px"">
            ",,10285,,7,html-keyboard-response,incongruent,
14,long,,,,,,,0.0-3.0-2.1,,,,,,,11186,,8,html-keyboard-response,,
14,long,,,,,,,0.0-3.0-0.2,,,,,"<div style=""font-size:60px;"">+</div>",,11904,,9,html-keyboard-response,,
14,long,big,True,,,,random,0.0-3.0-1.2,Big-visBig/19_17.jpg,c,Small-visSmall/10_59.jpg,613,"
            <img src=""Big-visBig/19_17.jpg"" style=""margin-right: 50px""> 
            <img src=""Small-visSmall/10_59.jpg"" style=""margin-left: 50px"">
            ",,12518,,10,html-keyboard-response,congruent,
14,long,,,,,,,0.0-3.0-2.2,,,,,,,13419,,11,html-keyboard-response,,
14,long,,,,,,,0.0-3.0-0.3,,,,,"<div style=""font-size:60px;"">+</div>",,14121,,12,html-keyboard-response,,
14,long,big,True,,,,random,0.0-3.0-1.3,Small-visSmall/21_52.jpg,m,Big-visBig/08_35.jpg,775,"
            <img src=""Small-visSmall/21_52.jpg"" style=""margin-right: 50px""> 
            <img src=""Big-visBig/08_35.jpg"" style=""margin-left: 50px"">
            ",,14897,,13,html-keyboard-response,congruent,
14,long,,,,,,,0.0-3.0-2.3,,,,,,,15797,,14,html-keyboard-response,,
14,long,,,,,,,0.0-3.0-0.4,,,,,"<div style=""font-size:60px;"">+</div>",,16499,,15,html-keyboard-response,,
14,long,big,True,,,,random,0.0-3.0-1.4,Big-visSmall/04_05.jpg,m,Small-visBig/27_63.jpg,1037,"
            <img src=""Big-visSmall/04_05.jpg"" style=""margin-right: 50px""> 
            <img src=""Small-visBig/27_63.jpg"" style=""margin-left: 50px"">
            ",,17536,,16,html-keyboard-response,incongruent,
14,long,,,,,,,0.0-3.0-2.4,,,,,,,18438,,17,html-keyboard-response,,
14,long,,,,,,,0.0-4.0-0.0,, ,,2362,"<p> <b> Practice: </b> Which image is <b>smaller</b>? </p> <br> <p> Press <b>c</b> for image on left, and <b>m</b> for image on right as quickly and accurately as possible. </p> <p> Press space to continue.</p>",,20799,,18,html-keyboard-response,,
14,long,,,,,,,0.0-5.0-0.0,,,,,"<div style=""font-size:60px;"">+</div>",,21501,,19,html-keyboard-response,,
14,long,small,True,,,,random,0.0-5.0-1.0,Big-visSmall/02_08.jpg,c,Small-visBig/23_70.jpg,600,"
            <img src=""Big-visSmall/02_08.jpg"" style=""margin-right: 50px""> 
            <img src=""Small-visBig/23_70.jpg"" style=""margin-left: 50px"">
            ",,22101,,20,html-keyboard-response,incongruent,
14,long,,,,,,,0.0-5.0-2.0,,,,,,,23002,,21,html-keyboard-response,,
14,long,,,,,,,0.0-5.0-0.1,,,,,"<div style=""font-size:60px;"">+</div>",,23704,,22,html-keyboard-response,,
14,long,small,True,,,,random,0.0-5.0-1.1,Small-visSmall/05_54.jpg,c,Big-visBig/05_25.jpg,716,"
            <img src=""Small-visSmall/05_54.jpg"" style=""margin-right: 50px""> 
            <img src=""Big-visBig/05_25.jpg"" style=""margin-left: 50px"">
            ",,24421,,23,html-keyboard-response,congruent,
14,long,,,,,,,0.0-5.0-2.1,,,,,,,25322,,24,html-keyboard-response,,
14,long,,,,,,,0.0-5.0-0.2,,,,,"<div style=""font-size:60px;"">+</div>",,26023,,25,html-keyboard-response,,
14,long,small,True,,,,random,0.0-5.0-1.2,Big-visBig/28_12.jpg,m,Small-visSmall/26_42.jpg,691,"
            <img src=""Big-visBig/28_12.jpg"" style=""margin-right: 50px""> 
            <img src=""Small-visSmall/26_42.jpg"" style=""margin-left: 50px"">
            ",,26715,,26,html-keyboard-response,congruent,
14,long,,,,,,,0.0-5.0-2.2,,,,,,,27615,,27,html-keyboard-response,,
14,long,,,,,,,0.0-5.0-0.3,,,,,"<div style=""font-size:60px;"">+</div>",,28317,,28,html-keyboard-response,,
14,long,small,True,,,,random,0.0-5.0-1.3,Small-visSmall/22_65.jpg,c,Big-visBig/14_34.jpg,693,"
            <img src=""Small-visSmall/22_65.jpg"" style=""margin-right: 50px""> 
            <img src=""Big-visBig/14_34.jpg"" style=""margin-left: 50px"">
            ",,29011,,29,html-keyboard-response,congruent,
14,long,,,,,,,0.0-5.0-2.3,,,,,,,30008,,30,html-keyboard-response,,
14,long,,,,,,,0.0-5.0-0.4,,,,,"<div style=""font-size:60px;"">+</div>",,30709,,31,html-keyboard-response,,
14,long,small,True,,,,random,0.0-5.0-1.4,Big-visSmall/11_40.jpg,c,Small-visBig/16_73.jpg,663,"
            <img src=""Big-visSmall/11_40.jpg"" style=""margin-right: 50px""> 
            <img src=""Small-visBig/16_73.jpg"" style=""margin-left: 50px"">
            ",,31374,,32,html-keyboard-response,incongruent,
14,long,,,,,,,0.0-5.0-2.4,,,,,,,32276,,33,html-keyboard-response,,
14,long,,,,,,,0.0-6.0-0.0,, ,,846,<p> Great job! You are now ready to start the main experiment! </p> <br> <p> Press space to continue. </p>,,33122,,34,html-keyboard-response,,
14,long,,,,,,,0.0-7.0-0.0,, ,,2258,"<p> <b> Block 1 out of 4 (5 minutes): </b>Which image is <b>bigger</b>?</p> <br> <p>Press <b>c</b> for image on left, and <b>m</b> for image on right as quickly and accurately as possible. </p> <br> <p> Press space to continue.</p>",,35379,,35,html-keyboard-response,,
14,long,,,,,,,0.0-8.0-0.0,,,,,"<div style=""font-size:60px;"">+</div>",,36080,,36,html-keyboard-response,,
14,long,big,True,,,,preset,0.0-8.0-1.0,Small-visBig/24_61.jpg,c,Big-visSmall/23_16.jpg,1341,"
            <img src=""Small-visBig/24_61.jpg"" style=""margin-right: 50px""> 
            <img src=""Big-visSmall/23_16.jpg"" style=""margin-left: 50px"">
            ",,37423,,37,html-keyboard-response,incongruent,
14,long,,,,,,,0.0-8.0-2.0,,,,,,,38324,,38,html-keyboard-response,,
14,long,,,,,,,0.0-8.0-0.1,,,,,"<div style=""font-size:60px;"">+</div>",,39025,,39,html-keyboard-response,,
14,long,big,True,,,,preset,0.0-8.0-1.1,Small-visBig/21_52.jpg,c,Big-visSmall/20_38.jpg,595,"
            <img src=""Small-visBig/21_52.jpg"" style=""margin-right: 50px""> 
            <img src=""Big-visSmall/20_38.jpg"" style=""margin-left: 50px"">
            ",,39620,,40,html-keyboard-response,incongruent,
14,long,,,,,,,0.0-8.0-2.1,,,,,,,40521,,41,html-keyboard-response,,
14,long,,,,,,,0.0-8.0-0.2,,,,,"<div style=""font-size:60px;"">+</div>",,41223,,42,html-keyboard-response,,
14,long,big,True,,,,preset,0.0-8.0-1.2,Big-visBig/21_31.jpg,c,Small-visSmall/22_65.jpg,575,"
            <img src=""Big-visBig/21_31.jpg"" style=""margin-right: 50px""> 
            <img src=""Small-visSmall/22_65.jpg"" style=""margin-left: 50px"">
            ",,41799,,43,html-keyboard-response,congruent,
14,long,,,,,,,0.0-8.0-2.2,,,,,,,42701,,44,html-keyboard-response,,
14,long,,,,,,,0.0-8.0-0.3,,,,,"<div style=""font-size:60px;"">+</div>",,43401,,45,html-keyboard-response,,
14,long,big,True,,,,preset,0.0-8.0-1.3,Big-visSmall/09_15.jpg,m,Small-visBig/09_64.jpg,620,"
            <img src=""Big-visSmall/09_15.jpg"" style=""margin-right: 50px""> 
            <img src=""Small-visBig/09_64.jpg"" style=""margin-left: 50px"">
            ",,44022,,46,html-keyboard-response,incongruent,
14,long,,,,,,,0.0-8.0-2.3,,,,,,,44923,,47,html-keyboard-response,,
14,long,,,,,,,0.0-8.0-0.4,,,,,"<div style=""font-size:60px;"">+</div>",,45648,,48,html-keyboard-response,,
14,long,big,True,,,,preset,0.0-8.0-1.4,Small-visBig/09_64.jpg,c,Big-visSmall/09_15.jpg,525,"
            <img src=""Small-visBig/09_64.jpg"" style=""margin-right: 50px""> 
            <img src=""Big-visSmall/09_15.jpg"" style=""margin-left: 50px"">
            ",,46174,,49,html-keyboard-response,incongruent,
14,long,,,,,,,0.0-8.0-2.4,,,,,,,47075,,50,html-keyboard-response,,
14,long,,,,,,,0.0-8.0-0.5,,,,,"<div style=""font-size:60px;"">+</div>",,47776,,51,html-keyboard-response,,
14,long,big,True,,,,preset,0.0-8.0-1.5,Small-visSmall/28_47.jpg,m,Big-visBig/27_18.jpg,560,"
            <img src=""Small-visSmall/28_47.jpg"" style=""margin-right: 50px""> 
            <img src=""Big-visBig/27_18.jpg"" style=""margin-left: 50px"">
            ",,48337,,52,html-keyboard-response,congruent,
14,long,,,,,,,0.0-8.0-2.5,,,,,,,49238,,53,html-keyboard-response,,
14,long,,,,,,,0.0-8.0-0.6,,,,,"<div style=""font-size:60px;"">+</div>",,49939,,54,html-keyboard-response,,
14,long,big,True,,,,preset,0.0-8.0-1.6,Small-visSmall/23_70.jpg,m,Big-visBig/22_26.jpg,586,"
            <img src=""Small-visSmall/23_70.jpg"" style=""margin-right: 50px""> 
            <img src=""Big-visBig/22_26.jpg"" style=""margin-left: 50px"">
            ",,50526,,55,html-keyboard-response,congruent,
14,long,,,,,,,0.0-8.0-2.6,,,,,,,51427,,56,html-keyboard-response,,
14,long,,,,,,,0.0-8.0-0.7,,,,,"<div style=""font-size:60px;"">+</div>",,52129,,57,html-keyboard-response,,
14,long,big,True,,,,preset,0.0-8.0-1.7,Small-visSmall/21_52.jpg,m,Big-visBig/20_38.jpg,569,"
            <img src=""Small-visSmall/21_52.jpg"" style=""margin-right: 50px""> 
            <img src=""Big-visBig/20_38.jpg"" style=""margin-left: 50px"">
            ",,52699,,58,html-keyboard-response,congruent,
14,long,,,,,,,0.0-8.0-2.7,,,,,,,53599,,59,html-keyboard-response,,
14,long,,,,,,,0.0-8.0-0.8,,,,,"<div style=""font-size:60px;"">+</div>",,54300,,60,html-keyboard-response,,
14,long,big,True,,,,preset,0.0-8.0-1.8,Big-visBig/26_32.jpg,c,Small-visSmall/27_63.jpg,561,"
            <img src=""Big-visBig/26_32.jpg"" style=""margin-right: 50px""> 
            <img src=""Small-visSmall/27_63.jpg"" style=""margin-left: 50px"">
            ",,54863,,61,html-keyboard-response,congruent,
14,long,,,,,,,0.0-8.0-2.8,,,,,,,55764,,62,html-keyboard-response,,
14,long,,,,,,,0.0-8.0-0.9,,,,,"<div style=""font-size:60px;"">+</div>",,56465,,63,html-keyboard-response,,
14,long,big,True,,,,preset,0.0-8.0-1.9,Big-visBig/29_03.jpg,c,Small-visSmall/30_50.jpg,490,"
            <img src=""Big-visBig/29_03.jpg"" style=""margin-right: 50px""> 
            <img src=""Small-visSmall/30_50.jpg"" style=""margin-left: 50px"">
            ",,56956,,64,html-keyboard-response,congruent,
14,long,,,,,,,0.0-8.0-2.9,,,,,,,57858,,65,html-keyboard-response,,
14,long,,,,,,,0.0-8.0-0.10,,,,,"<div style=""font-size:60px;"">+</div>",,58558,,66,html-keyboard-response,,
14,long,big,True,,,,preset,0.0-8.0-1.10,Small-visSmall/12_58.jpg,m,Big-visBig/12_13.jpg,511,"
            <img src=""Small-visSmall/12_58.jpg"" style=""margin-right: 50px""> 
            <img src=""Big-visBig/12_13.jpg"" style=""margin-left: 50px"">
            ",,59071,,67,html-keyboard-response,congruent,
14,long,,,,,,,0.0-8.0-2.10,,,,,,,60013,,68,html-keyboard-response,,
14,long,,,,,,,0.0-8.0-0.11,,,,,"<div style=""font-size:60px;"">+</div>",,60764,,69,html-keyboard-response,,
14,long,big,True,,,,preset,0.0-8.0-1.11,Big-visBig/18_23.jpg,c,Small-visSmall/19_41.jpg,492,"
            <img src=""Big-visBig/18_23.jpg"" style=""margin-right: 50px""> 
            <img src=""Small-visSmall/19_41.jpg"" style=""margin-left: 50px"">
            ",,61256,,70,html-keyboard-response,congruent,
14,long,,,,,,,0.0-8.0-2.11,,,,,,,62158,,71,html-keyboard-response,,
14,long,,,,,,,0.0-8.0-0.12,,,,,"<div style=""font-size:60px;"">+</div>",,62859,,72,html-keyboard-response,,
14,long,big,True,,,,preset,0.0-8.0-1.12,Big-visBig/03_36.jpg,c,Small-visSmall/03_57.jpg,518,"
            <img src=""Big-visBig/03_36.jpg"" style=""margin-right: 50px""> 
            <img src=""Small-visSmall/03_57.jpg"" style=""margin-left: 50px"">
            ",,63378,,73,html-keyboard-response,congruent,
14,long,,,,,,,0.0-8.0-2.12,,,,,,,64279,,74,html-keyboard-response,,
14,long,,,,,,,0.0-8.0-0.13,,,,,"<div style=""font-size:60px;"">+</div>",,64980,,75,html-keyboard-response,,
14,long,big,True,,,,preset,0.0-8.0-1.13,Small-visSmall/04_48.jpg,m,Big-visBig/04_05.jpg,502,"
            <img src=""Small-visSmall/04_48.jpg"" style=""margin-right: 50px""> 
            <img src=""Big-visBig/04_05.jpg"" style=""margin-left: 50px"">
            ",,65484,,76,html-keyboard-response,congruent,
14,long,,,,,,,0.0-8.0-2.13,,,,,,,66385,,77,html-keyboard-response,,
14,long,,,,,,,0.0-8.0-0.14,,,,,"<div style=""font-size:60px;"">+</div>",,67086,,78,html-keyboard-response,,
14,long,big,True,,,,preset,0.0-8.0-1.14,Big-visSmall/22_26.jpg,m,Small-visBig/23_70.jpg,627,"
            <img src=""Big-visSmall/22_26.jpg"" style=""margin-right: 50px""> 
            <img src=""Small-visBig/23_70.jpg"" style=""margin-left: 50px"">
            ",,67715,,79,html-keyboard-response,incongruent,
14,long,,,,,,,0.0-8.0-2.14,,,,,,,68615,,80,html-keyboard-response,,
14,long,,,,,,,0.0-8.0-0.15,,,,,"<div style=""font-size:60px;"">+</div>",,69317,,81,html-keyboard-response,,
14,long,big,True,,,,preset,0.0-8.0-1.15,Small-visSmall/30_50.jpg,m,Big-visBig/29_03.jpg,593,"
            <img src=""Small-visSmall/30_50.jpg"" style=""margin-right: 50px""> 
            <img src=""Big-visBig/29_03.jpg"" style=""margin-left: 50px"">
            ",,69910,,82,html-keyboard-response,congruent,
14,long,,,,,,,0.0-8.0-2.15,,,,,,,70810,,83,html-keyboard-response,,
14,long,,,,,,,0.0-8.0-0.16,,,,,"<div style=""font-size:60px;"">+</div>",,71512,,84,html-keyboard-response,,
14,long,big,True,,,,preset,0.0-8.0-1.16,Big-visSmall/02_08.jpg,m,Small-visBig/02_44.jpg,574,"
            <img src=""Big-visSmall/02_08.jpg"" style=""margin-right: 50px""> 
            <img src=""Small-visBig/02_44.jpg"" style=""margin-left: 50px"">
            ",,72086,,85,html-keyboard-response,incongruent,
14,long,,,,,,,0.0-8.0-2.16,,,,,,,72989,,86,html-keyboard-response,,
14,long,,,,,,,0.0-8.0-0.17,,,,,"<div style=""font-size:60px;"">+</div>",,73692,,87,html-keyboard-response,,
14,long,big,True,,,,preset,0.0-8.0-1.17,Big-visSmall/29_03.jpg,m,Small-visBig/30_50.jpg,1068,"
            <img src=""Big-visSmall/29_03.jpg"" style=""margin-right: 50px""> 
            <img src=""Small-visBig/30_50.jpg"" style=""margin-left: 50px"">
            ",,74761,,88,html-keyboard-response,incongruent,
14,long,,,,,,,0.0-8.0-2.17,,,,,,,75662,,89,html-keyboard-response,,
14,long,,,,,,,0.0-8.0-0.18,,,,,"<div style=""font-size:60px;"">+</div>",,76364,,90,html-keyboard-response,,
14,long,big,True,,,,preset,0.0-8.0-1.18,Big-visBig/27_18.jpg,c,Small-visSmall/28_47.jpg,595,"
            <img src=""Big-visBig/27_18.jpg"" style=""margin-right: 50px""> 
            <img src=""Small-visSmall/28_47.jpg"" style=""margin-left: 50px"">
            ",,76960,,91,html-keyboard-response,congruent,
14,long,,,,,,,0.0-8.0-2.18,,,,,,,77861,,92,html-keyboard-response,,
14,long,,,,,,,0.0-8.0-0.19,,,,,"<div style=""font-size:60px;"">+</div>",,78562,,93,html-keyboard-response,,
14,long,big,True,,,,preset,0.0-8.0-1.19,Small-visBig/28_47.jpg,c,Big-visSmall/27_18.jpg,557,"
            <img src=""Small-visBig/28_47.jpg"" style=""margin-right: 50px""> 
            <img src=""Big-visSmall/27_18.jpg"" style=""margin-left: 50px"">
            ",,79120,,94,html-keyboard-response,incongruent,
14,long,,,,,,,0.0-8.0-2.19,,,,,,,80022,,95,html-keyboard-response,,
14,long,,,,,,,0.0-8.0-0.20,,,,,"<div style=""font-size:60px;"">+</div>",,80724,,96,html-keyboard-response,,
14,long,big,True,,,,preset,0.0-8.0-1.20,Small-visSmall/05_54.jpg,m,Big-visBig/05_25.jpg,515,"
            <img src=""Small-visSmall/05_54.jpg"" style=""margin-right: 50px""> 
            <img src=""Big-visBig/05_25.jpg"" style=""margin-left: 50px"">
            ",,81239,,97,html-keyboard-response,congruent,
14,long,,,,,,,0.0-8.0-2.20,,,,,,,82141,,98,html-keyboard-response,,
14,long,,,,,,,0.0-8.0-0.21,,,,,"<div style=""font-size:60px;"">+</div>",,82842,,99,html-keyboard-response,,
14,long,big,True,,,,preset,0.0-8.0-1.21,Big-visSmall/23_16.jpg,m,Small-visBig/24_61.jpg,642,"
            <img src=""Big-visSmall/23_16.jpg"" style=""margin-right: 50px""> 
            <img src=""Small-visBig/24_61.jpg"" style=""margin-left: 50px"">
            ",,83486,,100,html-keyboard-response,incongruent,
14,long,,,,,,,0.0-8.0-2.21,,,,,,,84387,,101,html-keyboard-response,,
14,long,,,,,,,0.0-8.0-0.22,,,,,"<div style=""font-size:60px;"">+</div>",,85088,,102,html-keyboard-response,,
14,long,big,True,,,,preset,0.0-8.0-1.22,Small-visBig/16_73.jpg,c,Big-visSmall/15_29.jpg,561,"
            <img src=""Small-visBig/16_73.jpg"" style=""margin-right: 50px""> 
            <img src=""Big-visSmall/15_29.jpg"" style=""margin-left: 50px"">
            ",,85652,,103,html-keyboard-response,incongruent,
14,long,,,,,,,0.0-8.0-2.22,,,,,,,86554,,104,html-keyboard-response,,
14,long,,,,,,,0.0-8.0-0.23,,,,,"<div style=""font-size:60px;"">+</div>",,87254,,105,html-keyboard-response,,
14,long,big,True,,,,preset,0.0-8.0-1.23,Small-visBig/08_45.jpg,c,Big-visSmall/08_35.jpg,627,"
            <img src=""Small-visBig/08_45.jpg"" style=""margin-right: 50px""> 
            <img src=""Big-visSmall/08_35.jpg"" style=""margin-left: 50px"">
            ",,87883,,106,html-keyboard-response,incongruent,
14,long,,,,,,,0.0-8.0-2.23,,,,,,,88784,,107,html-keyboard-response,,
14,long,,,,,,,0.0-8.0-0.24,,,,,"<div style=""font-size:60px;"">+</div>",,89485,,108,html-keyboard-response,,
14,long,big,True,,,,preset,0.0-8.0-1.24,Big-visBig/10_09.jpg,c,Small-visSmall/10_59.jpg,544,"
            <img src=""Big-visBig/10_09.jpg"" style=""margin-right: 50px""> 
            <img src=""Small-visSmall/10_59.jpg"" style=""margin-left: 50px"">
            ",,90030,,109,html-keyboard-response,congruent,
14,long,,,,,,,0.0-8.0-2.24,,,,,,,90932,,110,html-keyboard-response,,
14,long,,,,,,,0.0-8.0-0.25,,,,,"<div style=""font-size:60px;"">+</div>",,91633,,111,html-keyboard-response,,
14,long,big,True,,,,preset,0.0-8.0-1.25,Big-visSmall/03_36.jpg,m,Small-visBig/03_57.jpg,882,"
            <img src=""Big-visSmall/03_36.jpg"" style=""margin-right: 50px""> 
            <img src=""Small-visBig/03_57.jpg"" style=""margin-left: 50px"">
            ",,92516,,112,html-keyboard-response,incongruent,
14,long,,,,,,,0.0-8.0-2.25,,,,,,,93417,,113,html-keyboard-response,,
14,long,,,,,,,0.0-8.0-0.26,,,,,"<div style=""font-size:60px;"">+</div>",,94118,,114,html-keyboard-response,,
14,long,big,True,,,,preset,0.0-8.0-1.26,Big-visSmall/07_33.jpg,m,Small-visBig/07_51.jpg,543,"
            <img src=""Big-visSmall/07_33.jpg"" style=""margin-right: 50px""> 
            <img src=""Small-visBig/07_51.jpg"" style=""margin-left: 50px"">
            ",,94663,,115,html-keyboard-response,incongruent,
14,long,,,,,,,0.0-8.0-2.26,,,,,,,95564,,116,html-keyboard-response,,
14,long,,,,,,,0.0-8.0-0.27,,,,,"<div style=""font-size:60px;"">+</div>",,96265,,117,html-keyboard-response,,
14,long,big,True,,,,preset,0.0-8.0-1.27,Small-visSmall/26_42.jpg,m,Big-visBig/25_10.jpg,598,"
            <img src=""Small-visSmall/26_42.jpg"" style=""margin-right: 50px""> 
            <img src=""Big-visBig/25_10.jpg"" style=""margin-left: 50px"">
            ",,96864,,118,html-keyboard-response,congruent,
14,long,,,,,,,0.0-8.0-2.27,,,,,,,97765,,119,html-keyboard-response,,
14,long,,,,,,,0.0-8.0-0.28,,,,,"<div style=""font-size:60px;"">+</div>",,98466,,120,html-keyboard-response,,
14,long,big,True,,,,preset,0.0-8.0-1.28,Big-visBig/06_02.jpg,c,Small-visSmall/06_43.jpg,542,"
            <img src=""Big-visBig/06_02.jpg"" style=""margin-right: 50px""> 
            <img src=""Small-visSmall/06_43.jpg"" style=""margin-left: 50px"">
            ",,99009,,121,html-keyboard-response,congruent,
14,long,,,,,,,0.0-8.0-2.28,,,,,,,99911,,122,html-keyboard-response,,
14,long,,,,,,,0.0-8.0-0.29,,,,,"<div style=""font-size:60px;"">+</div>",,100612,,123,html-keyboard-response,,
14,long,big,True,,,,preset,0.0-8.0-1.29,Small-visBig/18_76.jpg,c,Big-visSmall/17_21.jpg,615,"
            <img src=""Small-visBig/18_76.jpg"" style=""margin-right: 50px""> 
            <img src=""Big-visSmall/17_21.jpg"" style=""margin-left: 50px"">
            ",,101229,,124,html-keyboard-response,incongruent,
14,long,,,,,,,0.0-8.0-2.29,,,,,,,102130,,125,html-keyboard-response,,
14,long,,,,,,,0.0-8.0-0.30,,,,,"<div style=""font-size:60px;"">+</div>",,102831,,126,html-keyboard-response,,
14,long,big,True,,,,preset,0.0-8.0-1.30,Small-visBig/19_41.jpg,c,Big-visSmall/18_23.jpg,799,"
            <img src=""Small-visBig/19_41.jpg"" style=""margin-right: 50px""> 
            <img src=""Big-visSmall/18_23.jpg"" style=""margin-left: 50px"">
            ",,103630,,127,html-keyboard-response,incongruent,
14,long,,,,,,,0.0-8.0-2.30,,,,,,,104532,,128,html-keyboard-response,,
14,long,,,,,,,0.0-8.0-0.31,,,,,"<div style=""font-size:60px;"">+</div>",,105232,,129,html-keyboard-response,,
14,long,big,True,,,,preset,0.0-8.0-1.31,Small-visSmall/10_59.jpg,m,Big-visBig/10_09.jpg,481,"
            <img src=""Small-visSmall/10_59.jpg"" style=""margin-right: 50px""> 
            <img src=""Big-visBig/10_09.jpg"" style=""margin-left: 50px"">
            ",,105715,,130,html-keyboard-response,congruent,
14,long,,,,,,,0.0-8.0-2.31,,,,,,,106616,,131,html-keyboard-response,,
14,long,,,,,,,0.0-8.0-0.32,,,,,"<div style=""font-size:60px;"">+</div>",,107317,,132,html-keyboard-response,,
14,long,big,True,,,,preset,0.0-8.0-1.32,Big-visBig/11_40.jpg,c,Small-visSmall/11_71.jpg,473,"
            <img src=""Big-visBig/11_40.jpg"" style=""margin-right: 50px""> 
            <img src=""Small-visSmall/11_71.jpg"" style=""margin-left: 50px"">
            ",,107791,,133,html-keyboard-response,congruent,
14,long,,,,,,,0.0-8.0-2.32,,,,,,,108692,,134,html-keyboard-response,,
14,long,,,,,,,0.0-8.0-0.33,,,,,"<div style=""font-size:60px;"">+</div>",,109394,,135,html-keyboard-response,,
14,long,big,True,,,,preset,0.0-8.0-1.33,Big-visBig/14_34.jpg,c,Small-visSmall/14_67.jpg,499,"
            <img src=""Big-visBig/14_34.jpg"" style=""margin-right: 50px""> 
            <img src=""Small-visSmall/14_67.jpg"" style=""margin-left: 50px"">
            ",,109894,,136,html-keyboard-response,congruent,
14,long,,,,,,,0.0-8.0-2.33,,,,,,,110795,,137,html-keyboard-response,,
14,long,,,,,,,0.0-8.0-0.34,,,,,"<div style=""font-size:60px;"">+</div>",,111496,,138,html-keyboard-response,,
14,long,big,True,,,,preset,0.0-8.0-1.34,Small-visBig/22_65.jpg,c,Big-visSmall/21_31.jpg,546,"
            <img src=""Small-visBig/22_65.jpg"" style=""margin-right: 50px""> 
            <img src=""Big-visSmall/21_31.jpg"" style=""margin-left: 50px"">
            ",,112042,,139,html-keyboard-response,incongruent,
14,long,,,,,,,0.0-8.0-2.34,,,,,,,112944,,140,html-keyboard-response,,
14,long,,,,,,,0.0-8.0-0.35,,,,,"<div style=""font-size:60px;"">+</div>",,113646,,141,html-keyboard-response,,
14,long,big,True,,,,preset,0.0-8.0-1.35,Big-visBig/01_07.jpg,c,Small-visSmall/01_78.jpg,461,"
            <img src=""Big-visBig/01_07.jpg"" style=""margin-right: 50px""> 
            <img src=""Small-visSmall/01_78.jpg"" style=""margin-left: 50px"">
            ",,114107,,142,html-keyboard-response,congruent,
14,long,,,,,,,0.0-8.0-2.35,,,,,,,115008,,143,html-keyboard-response,,
14,long,,,,,,,0.0-8.0-0.36,,,,,"<div style=""font-size:60px;"">+</div>",,115709,,144,html-keyboard-response,,
14,long,big,True,,,,preset,0.0-8.0-1.36,Big-visSmall/19_17.jpg,m,Small-visBig/20_79.jpg,511,"
            <img src=""Big-visSmall/19_17.jpg"" style=""margin-right: 50px""> 
            <img src=""Small-visBig/20_79.jpg"" style=""margin-left: 50px"">
            ",,116221,,145,html-keyboard-response,incongruent,
14,long,,,,,,,0.0-8.0-2.36,,,,,,,117122,,146,html-keyboard-response,,
14,long,,,,,,,0.0-8.0-0.37,,,,,"<div style=""font-size:60px;"">+</div>",,117823,,147,html-keyboard-response,,
14,long,big,True,,,,preset,0.0-8.0-1.37,Big-visBig/20_38.jpg,c,Small-visSmall/21_52.jpg,434,"
            <img src=""Big-visBig/20_38.jpg"" style=""margin-right: 50px""> 
            <img src=""Small-visSmall/21_52.jpg"" style=""margin-left: 50px"">
            ",,118258,,148,html-keyboard-response,congruent,
14,long,,,,,,,0.0-8.0-2.37,,,,,,,119159,,149,html-keyboard-response,,
14,long,,,,,,,0.0-8.0-0.38,,,,,"<div style=""font-size:60px;"">+</div>",,119861,,150,html-keyboard-response,,
14,long,big,True,,,,preset,0.0-8.0-1.38,Big-visSmall/08_35.jpg,m,Small-visBig/08_45.jpg,458,"
            <img src=""Big-visSmall/08_35.jpg"" style=""margin-right: 50px""> 
            <img src=""Small-visBig/08_45.jpg"" style=""margin-left: 50px"">
            ",,120320,,151,html-keyboard-response,incongruent,
14,long,,,,,,,0.0-8.0-2.38,,,,,,,121220,,152,html-keyboard-response,,
14,long,,,,,,,0.0-8.0-0.39,,,,,"<div style=""font-size:60px;"">+</div>",,121922,,153,html-keyboard-response,,
14,long,big,True,,,,preset,0.0-8.0-1.39,Big-visBig/24_06.jpg,c,Small-visSmall/25_56.jpg,472,"
            <img src=""Big-visBig/24_06.jpg"" style=""margin-right: 50px""> 
            <img src=""Small-visSmall/25_56.jpg"" style=""margin-left: 50px"">
            ",,122396,,154,html-keyboard-response,congruent,
14,long,,,,,,,0.0-8.0-2.39,,,,,,,123296,,155,html-keyboard-response,,
14,long,,,,,,,0.0-8.0-0.40,,,,,"<div style=""font-size:60px;"">+</div>",,123997,,156,html-keyboard-response,,
14,long,big,True,,,,preset,0.0-8.0-1.40,Small-visBig/30_50.jpg,c,Big-visSmall/29_03.jpg,526,"
            <img src=""Small-visBig/30_50.jpg"" style=""margin-right: 50px""> 
            <img src=""Big-visSmall/29_03.jpg"" style=""margin-left: 50px"">
            ",,124524,,157,html-keyboard-response,incongruent,
14,long,,,,,,,0.0-8.0-2.40,,,,,,,125426,,158,html-keyboard-response,,
14,long,,,,,,,0.0-8.0-0.41,,,,,"<div style=""font-size:60px;"">+</div>",,126127,,159,html-keyboard-response,,
14,long,big,True,,,,preset,0.0-8.0-1.41,Big-visBig/09_15.jpg,c,Small-visSmall/09_64.jpg,478,"
            <img src=""Big-visBig/09_15.jpg"" style=""margin-right: 50px""> 
            <img src=""Small-visSmall/09_64.jpg"" style=""margin-left: 50px"">
            ",,126605,,160,html-keyboard-response,congruent,
14,long,,,,,,,0.0-8.0-2.41,,,,,,,127506,,161,html-keyboard-response,,
14,long,,,,,,,0.0-8.0-0.42,,,,,"<div style=""font-size:60px;"">+</div>",,128207,,162,html-keyboard-response,,
14,long,big,True,,,,preset,0.0-8.0-1.42,Big-visBig/17_21.jpg,c,Small-visSmall/18_76.jpg,496,"
            <img src=""Big-visBig/17_21.jpg"" style=""margin-right: 50px""> 
            <img src=""Small-visSmall/18_76.jpg"" style=""margin-left: 50px"">
            ",,128705,,163,html-keyboard-response,congruent,
14,long,,,,,,,0.0-8.0-2.42,,,,,,,129605,,164,html-keyboard-response,,
14,long,,,,,,,0.0-8.0-0.43,,,,,"<div style=""font-size:60px;"">+</div>",,130306,,165,html-keyboard-response,,
14,long,big,True,,,,preset,0.0-8.0-1.43,Small-visSmall/13_77.jpg,m,Big-visBig/13_19.jpg,808,"
            <img src=""Small-visSmall/13_77.jpg"" style=""margin-right: 50px""> 
            <img src=""Big-visBig/13_19.jpg"" style=""margin-left: 50px"">
            ",,131115,,166,html-keyboard-response,congruent,
14,long,,,,,,,0.0-8.0-2.43,,,,,,,132016,,167,html-keyboard-response,,
14,long,,,,,,,0.0-8.0-0.44,,,,,"<div style=""font-size:60px;"">+</div>",,132717,,168,html-keyboard-response,,
14,long,big,True,,,,preset,0.0-8.0-1.44,Big-visBig/05_25.jpg,c,Small-visSmall/05_54.jpg,574,"
            <img src=""Big-visBig/05_25.jpg"" style=""margin-right: 50px""> 
            <img src=""Small-visSmall/05_54.jpg"" style=""margin-left: 50px"">
            ",,133292,,169,html-keyboard-response,congruent,
14,long,,,,,,,0.0-8.0-2.44,,,,,,,134192,,170,html-keyboard-response,,
14,long,,,,,,,0.0-8.0-0.45,,,,,"<div style=""font-size:60px;"">+</div>",,134894,,171,html-keyboard-response,,
14,long,big,True,,,,preset,0.0-8.0-1.45,Big-visSmall/18_23.jpg,m,Small-visBig/19_41.jpg,527,"
            <img src=""Big-visSmall/18_23.jpg"" style=""margin-right: 50px""> 
            <img src=""Small-visBig/19_41.jpg"" style=""margin-left: 50px"">
            ",,135422,,172,html-keyboard-response,incongruent,
14,long,,,,,,,0.0-8.0-2.45,,,,,,,136322,,173,html-keyboard-response,,
14,long,,,,,,,0.0-8.0-0.46,,,,,"<div style=""font-size:60px;"">+</div>",,137023,,174,html-keyboard-response,,
14,long,big,True,,,,preset,0.0-8.0-1.46,Big-visSmall/25_10.jpg,m,Small-visBig/26_42.jpg,579,"
            <img src=""Big-visSmall/25_10.jpg"" style=""margin-right: 50px""> 
            <img src=""Small-visBig/26_42.jpg"" style=""margin-left: 50px"">
            ",,137604,,175,html-keyboard-response,incongruent,
14,long,,,,,,,0.0-8.0-2.46,,,,,,,138504,,176,html-keyboard-response,,
14,long,,,,,,,0.0-8.0-0.47,,,,,"<div style=""font-size:60px;"">+</div>",,139206,,177,html-keyboard-response,,
14,long,big,True,,,,preset,0.0-8.0-1.47,Small-visSmall/25_56.jpg,m,Big-visBig/24_06.jpg,490,"
            <img src=""Small-visSmall/25_56.jpg"" style=""margin-right: 50px""> 
            <img src=""Big-visBig/24_06.jpg"" style=""margin-left: 50px"">
            ",,139698,,178,html-keyboard-response,congruent,
14,long,,,,,,,0.0-8.0-2.47,,,,,,,140599,,179,html-keyboard-response,,
14,long,,,,,,,0.0-8.0-0.48,,,,,"<div style=""font-size:60px;"">+</div>",,141300,,180,html-keyboard-response,,
14,long,big,True,,,,preset,0.0-8.0-1.48,Small-visBig/15_72.jpg,c,Big-visSmall/14_34.jpg,494,"
            <img src=""Small-visBig/15_72.jpg"" style=""margin-right: 50px""> 
            <img src=""Big-visSmall/14_34.jpg"" style=""margin-left: 50px"">
            ",,141795,,181,html-keyboard-response,incongruent,
14,long,,,,,,,0.0-8.0-2.48,,,,,,,142719,,182,html-keyboard-response,,
14,long,,,,,,,0.0-8.0-0.49,,,,,"<div style=""font-size:60px;"">+</div>",,143420,,183,html-keyboard-response,,
14,long,big,True,,,,preset,0.0-8.0-1.49,Big-visBig/13_19.jpg,c,Small-visSmall/13_77.jpg,438,"
            <img src=""Big-visBig/13_19.jpg"" style=""margin-right: 50px""> 
            <img src=""Small-visSmall/13_77.jpg"" style=""margin-left: 50px"">
            ",,143857,,184,html-keyboard-response,congruent,
14,long,,,,,,,0.0-8.0-2.49,,,,,,,144759,,185,html-keyboard-response,,
14,long,,,,,,,0.0-8.0-0.50,,,,,"<div style=""font-size:60px;"">+</div>",,145460,,186,html-keyboard-response,,
14,long,big,True,,,,preset,0.0-8.0-1.50,Small-visSmall/undefined,m,Big-visBig/30_20.jpg,25679,"
            <img src=""Small-visSmall/undefined"" style=""margin-right: 50px""> 
            <img src=""Big-visBig/30_20.jpg"" style=""margin-left: 50px"">
            ",,171141,,187,html-keyboard-response,congruent,
14,long,,,,,,,0.0-8.0-2.50,,,,,,,172073,,188,html-keyboard-response,,
14,long,,,,,,,0.0-8.0-0.51,,,,,"<div style=""font-size:60px;"">+</div>",,172774,,189,html-keyboard-response,,
14,long,big,True,,,,preset,0.0-8.0-1.51,Big-visSmall/17_21.jpg,m,Small-visBig/18_76.jpg,794,"
            <img src=""Big-visSmall/17_21.jpg"" style=""margin-right: 50px""> 
            <img src=""Small-visBig/18_76.jpg"" style=""margin-left: 50px"">
            ",,173569,,190,html-keyboard-response,incongruent,
14,long,,,,,,,0.0-8.0-2.51,,,,,,,174469,,191,html-keyboard-response,,
14,long,,,,,,,0.0-8.0-0.52,,,,,"<div style=""font-size:60px;"">+</div>",,175171,,192,html-keyboard-response,,
14,long,big,True,,,,preset,0.0-8.0-1.52,Big-visSmall/04_05.jpg,m,Small-visBig/04_48.jpg,575,"
            <img src=""Big-visSmall/04_05.jpg"" style=""margin-right: 50px""> 
            <img src=""Small-visBig/04_48.jpg"" style=""margin-left: 50px"">
            ",,175748,,193,html-keyboard-response,incongruent,
14,long,,,,,,,0.0-8.0-2.52,,,,,,,176650,,194,html-keyboard-response,,
14,long,,,,,,,0.0-8.0-0.53,,,,,"<div style=""font-size:60px;"">+</div>",,177351,,195,html-keyboard-response,,
14,long,big,True,,,,preset,0.0-8.0-1.53,Big-visBig/04_05.jpg,c,Small-visSmall/04_48.jpg,572,"
            <img src=""Big-visBig/04_05.jpg"" style=""margin-right: 50px""> 
            <img src=""Small-visSmall/04_48.jpg"" style=""margin-left: 50px"">
            ",,177924,,196,html-keyboard-response,congruent,
14,long,,,,,,,0.0-8.0-2.53,,,,,,,178824,,197,html-keyboard-response,,
14,long,,,,,,,0.0-8.0-0.54,,,,,"<div style=""font-size:60px;"">+</div>",,179526,,198,html-keyboard-response,,
14,long,big,True,,,,preset,0.0-8.0-1.54,Small-visBig/01_78.jpg,c,Big-visSmall/01_07.jpg,804,"
            <img src=""Small-visBig/01_78.jpg"" style=""margin-right: 50px""> 
            <img src=""Big-visSmall/01_07.jpg"" style=""margin-left: 50px"">
            ",,180331,,199,html-keyboard-response,incongruent,
14,long,,,,,,,0.0-8.0-2.54,,,,,,,181233,,200,html-keyboard-response,,
14,long,,,,,,,0.0-8.0-0.55,,,,,"<div style=""font-size:60px;"">+</div>",,182018,,201,html-keyboard-response,,
14,long,big,True,,,,preset,0.0-8.0-1.55,Small-visSmall/24_61.jpg,m,Big-visBig/23_16.jpg,584,"
            <img src=""Small-visSmall/24_61.jpg"" style=""margin-right: 50px""> 
            <img src=""Big-visBig/23_16.jpg"" style=""margin-left: 50px"">
            ",,182604,,202,html-keyboard-response,congruent,
14,long,,,,,,,0.0-8.0-2.55,,,,,,,183505,,203,html-keyboard-response,,
14,long,,,,,,,0.0-8.0-0.56,,,,,"<div style=""font-size:60px;"">+</div>",,184206,,204,html-keyboard-response,,
14,long,big,True,,,,preset,0.0-8.0-1.56,Big-visSmall/27_18.jpg,m,Small-visBig/28_47.jpg,563,"
            <img src=""Big-visSmall/27_18.jpg"" style=""margin-right: 50px""> 
            <img src=""Small-visBig/28_47.jpg"" style=""margin-left: 50px"">
            ",,184771,,205,html-keyboard-response,incongruent,
14,long,,,,,,,0.0-8.0-2.56,,,,,,,185672,,206,html-keyboard-response,,
14,long,,,,,,,0.0-8.0-0.57,,,,,"<div style=""font-size:60px;"">+</div>",,186374,,207,html-keyboard-response,,
14,long,big,True,,,,preset,0.0-8.0-1.57,Small-visSmall/09_64.jpg,m,Big-visBig/09_15.jpg,428,"
            <img src=""Small-visSmall/09_64.jpg"" style=""margin-right: 50px""> 
            <img src=""Big-visBig/09_15.jpg"" style=""margin-left: 50px"">
            ",,186803,,208,html-keyboard-response,congruent,
14,long,,,,,,,0.0-8.0-2.57,,,,,,,187705,,209,html-keyboard-response,,
14,long,,,,,,,0.0-8.0-0.58,,,,,"<div style=""font-size:60px;"">+</div>",,188406,,210,html-keyboard-response,,
14,long,big,True,,,,preset,0.0-8.0-1.58,Small-visSmall/07_51.jpg,m,Big-visBig/07_33.jpg,440,"
            <img src=""Small-visSmall/07_51.jpg"" style=""margin-right: 50px""> 
            <img src=""Big-visBig/07_33.jpg"" style=""margin-left: 50px"">
            ",,188847,,211,html-keyboard-response,congruent,
14,long,,,,,,,0.0-8.0-2.58,,,,,,,189749,,212,html-keyboard-response,,
14,long,,,,,,,0.0-8.0-0.59,,,,,"<div style=""font-size:60px;"">+</div>",,190450,,213,html-keyboard-response,,
14,long,big,True,,,,preset,0.0-8.0-1.59,Big-visBig/14_34.jpg,c,Small-visSmall/15_72.jpg,615,"
            <img src=""Big-visBig/14_34.jpg"" style=""margin-right: 50px""> 
            <img src=""Small-visSmall/15_72.jpg"" style=""margin-left: 50px"">
            ",,191066,,214,html-keyboard-response,congruent,
14,long,,,,,,,0.0-8.0-2.59,,,,,,,191967,,215,html-keyboard-response,,
14,long,,,,,,,0.0-8.0-0.60,,,,,"<div style=""font-size:60px;"">+</div>",,192668,,216,html-keyboard-response,,
14,long,big,True,,,,preset,0.0-8.0-1.60,Small-visBig/07_51.jpg,c,Big-visSmall/07_33.jpg,596,"
            <img src=""Small-visBig/07_51.jpg"" style=""margin-right: 50px""> 
            <img src=""Big-visSmall/07_33.jpg"" style=""margin-left: 50px"">
            ",,193265,,217,html-keyboard-response,incongruent,
14,long,,,,,,,0.0-8.0-2.60,,,,,,,194167,,218,html-keyboard-response,,
14,long,,,,,,,0.0-8.0-0.61,,,,,"<div style=""font-size:60px;"">+</div>",,194868,,219,html-keyboard-response,,
14,long,big,True,,,,preset,0.0-8.0-1.61,Big-visBig/25_10.jpg,c,Small-visSmall/26_42.jpg,476,"
            <img src=""Big-visBig/25_10.jpg"" style=""margin-right: 50px""> 
            <img src=""Small-visSmall/26_42.jpg"" style=""margin-left: 50px"">
            ",,195345,,220,html-keyboard-response,congruent,
14,long,,,,,,,0.0-8.0-2.61,,,,,,,196246,,221,html-keyboard-response,,
14,long,,,,,,,0.0-8.0-0.62,,,,,"<div style=""font-size:60px;"">+</div>",,196947,,222,html-keyboard-response,,
14,long,big,True,,,,preset,0.0-8.0-1.62,Small-visBig/17_80.jpg,c,Big-visSmall/16_28.jpg,484,"
            <img src=""Small-visBig/17_80.jpg"" style=""margin-right: 50px""> 
            <img src=""Big-visSmall/16_28.jpg"" style=""margin-left: 50px"">
            ",,197432,,223,html-keyboard-response,incongruent,
14,long,,,,,,,0.0-8.0-2.62,,,,,,,198333,,224,html-keyboard-response,,
14,long,,,,,,,0.0-8.0-0.63,,,,,"<div style=""font-size:60px;"">+</div>",,199035,,225,html-keyboard-response,,
14,long,big,True,,,,preset,0.0-8.0-1.63,Big-visBig/08_35.jpg,c,Small-visSmall/08_45.jpg,633,"
            <img src=""Big-visBig/08_35.jpg"" style=""margin-right: 50px""> 
            <img src=""Small-visSmall/08_45.jpg"" style=""margin-left: 50px"">
            ",,199669,,226,html-keyboard-response,congruent,
14,long,,,,,,,0.0-8.0-2.63,,,,,,,200570,,227,html-keyboard-response,,
14,long,,,,,,,0.0-8.0-0.64,,,,,"<div style=""font-size:60px;"">+</div>",,201271,,228,html-keyboard-response,,
14,long,big,True,,,,preset,0.0-8.0-1.64,Small-visSmall/22_65.jpg,m,Big-visBig/21_31.jpg,621,"
            <img src=""Small-visSmall/22_65.jpg"" style=""margin-right: 50px""> 
            <img src=""Big-visBig/21_31.jpg"" style=""margin-left: 50px"">
            ",,201894,,229,html-keyboard-response,congruent,
14,long,,,,,,,0.0-8.0-2.64,,,,,,,202794,,230,html-keyboard-response,,
14,long,,,,,,,0.0-8.0-0.65,,,,,"<div style=""font-size:60px;"">+</div>",,203495,,231,html-keyboard-response,,
14,long,big,True,,,,preset,0.0-8.0-1.65,Small-visBig/03_57.jpg,c,Big-visSmall/03_36.jpg,495,"
            <img src=""Small-visBig/03_57.jpg"" style=""margin-right: 50px""> 
            <img src=""Big-visSmall/03_36.jpg"" style=""margin-left: 50px"">
            ",,203992,,232,html-keyboard-response,incongruent,
14,long,,,,,,,0.0-8.0-2.65,,,,,,,204893,,233,html-keyboard-response,,
14,long,,,,,,,0.0-8.0-0.66,,,,,"<div style=""font-size:60px;"">+</div>",,205595,,234,html-keyboard-response,,
14,long,big,True,,,,preset,0.0-8.0-1.66,Small-visSmall/06_43.jpg,m,Big-visBig/06_02.jpg,550,"
            <img src=""Small-visSmall/06_43.jpg"" style=""margin-right: 50px""> 
            <img src=""Big-visBig/06_02.jpg"" style=""margin-left: 50px"">
            ",,206147,,235,html-keyboard-response,congruent,
14,long,,,,,,,0.0-8.0-2.66,,,,,,,207048,,236,html-keyboard-response,,
14,long,,,,,,,0.0-8.0-0.67,,,,,"<div style=""font-size:60px;"">+</div>",,207795,,237,html-keyboard-response,,
14,long,big,True,,,,preset,0.0-8.0-1.67,Big-visSmall/20_38.jpg,m,Small-visBig/21_52.jpg,521,"
            <img src=""Big-visSmall/20_38.jpg"" style=""margin-right: 50px""> 
            <img src=""Small-visBig/21_52.jpg"" style=""margin-left: 50px"">
            ",,208319,,238,html-keyboard-response,incongruent,
14,long,,,,,,,0.0-8.0-2.67,,,,,,,209220,,239,html-keyboard-response,,
14,long,,,,,,,0.0-8.0-0.68,,,,,"<div style=""font-size:60px;"">+</div>",,209922,,240,html-keyboard-response,,
14,long,big,True,,,,preset,0.0-8.0-1.68,Small-visBig/11_71.jpg,c,Big-visSmall/11_40.jpg,578,"
            <img src=""Small-visBig/11_71.jpg"" style=""margin-right: 50px""> 
            <img src=""Big-visSmall/11_40.jpg"" style=""margin-left: 50px"">
            ",,210500,,241,html-keyboard-response,incongruent,
14,long,,,,,,,0.0-8.0-2.68,,,,,,,211401,,242,html-keyboard-response,,
14,long,,,,,,,0.0-8.0-0.69,,,,,"<div style=""font-size:60px;"">+</div>",,212103,,243,html-keyboard-response,,
14,long,big,True,,,,preset,0.0-8.0-1.69,Big-visBig/02_08.jpg,c,Small-visSmall/02_44.jpg,507,"
            <img src=""Big-visBig/02_08.jpg"" style=""margin-right: 50px""> 
            <img src=""Small-visSmall/02_44.jpg"" style=""margin-left: 50px"">
            ",,212611,,244,html-keyboard-response,congruent,
14,long,,,,,,,0.0-8.0-2.69,,,,,,,213511,,245,html-keyboard-response,,
14,long,,,,,,,0.0-8.0-0.70,,,,,"<div style=""font-size:60px;"">+</div>",,214212,,246,html-keyboard-response,,
14,long,big,True,,,,preset,0.0-8.0-1.70,Small-visSmall/08_45.jpg,m,Big-visBig/08_35.jpg,831,"
            <img src=""Small-visSmall/08_45.jpg"" style=""margin-right: 50px""> 
            <img src=""Big-visBig/08_35.jpg"" style=""margin-left: 50px"">
            ",,215044,,247,html-keyboard-response,congruent,
14,long,,,,,,,0.0-8.0-2.70,,,,,,,215945,,248,html-keyboard-response,,
14,long,,,,,,,0.0-8.0-0.71,,,,,"<div style=""font-size:60px;"">+</div>",,216646,,249,html-keyboard-response,,
14,long,big,True,,,,preset,0.0-8.0-1.71,Big-visSmall/21_31.jpg,m,Small-visBig/22_65.jpg,503,"
            <img src=""Big-visSmall/21_31.jpg"" style=""margin-right: 50px""> 
            <img src=""Small-visBig/22_65.jpg"" style=""margin-left: 50px"">
            ",,217150,,250,html-keyboard-response,incongruent,
14,long,,,,,,,0.0-8.0-2.71,,,,,,,218051,,251,html-keyboard-response,,
14,long,,,,,,,0.0-8.0-0.72,,,,,"<div style=""font-size:60px;"">+</div>",,218752,,252,html-keyboard-response,,
14,long,big,True,,,,preset,0.0-8.0-1.72,Small-visSmall/17_80.jpg,m,Big-visBig/16_28.jpg,482,"
            <img src=""Small-visSmall/17_80.jpg"" style=""margin-right: 50px""> 
            <img src=""Big-visBig/16_28.jpg"" style=""margin-left: 50px"">
            ",,219235,,253,html-keyboard-response,congruent,
14,long,,,,,,,0.0-8.0-2.72,,,,,,,220136,,254,html-keyboard-response,,
14,long,,,,,,,0.0-8.0-0.73,,,,,"<div style=""font-size:60px;"">+</div>",,220838,,255,html-keyboard-response,,
14,long,big,True,,,,preset,0.0-8.0-1.73,Small-visSmall/15_72.jpg,m,Big-visBig/14_34.jpg,421,"
            <img src=""Small-visSmall/15_72.jpg"" style=""margin-right: 50px""> 
            <img src=""Big-visBig/14_34.jpg"" style=""margin-left: 50px"">
            ",,221260,,256,html-keyboard-response,congruent,
14,long,,,,,,,0.0-8.0-2.73,,,,,,,222161,,257,html-keyboard-response,,
14,long,,,,,,,0.0-8.0-0.74,,,,,"<div style=""font-size:60px;"">+</div>",,222862,,258,html-keyboard-response,,
14,long,big,True,,,,preset,0.0-8.0-1.74,Small-visBig/02_44.jpg,c,Big-visSmall/02_08.jpg,423,"
            <img src=""Small-visBig/02_44.jpg"" style=""margin-right: 50px""> 
            <img src=""Big-visSmall/02_08.jpg"" style=""margin-left: 50px"">
            ",,223287,,259,html-keyboard-response,incongruent,
14,long,,,,,,,0.0-8.0-2.74,,,,,,,224187,,260,html-keyboard-response,,
14,long,,,,,,,0.0-8.0-0.75,,,,,"<div style=""font-size:60px;"">+</div>",,224889,,261,html-keyboard-response,,
14,long,big,True,,,,preset,0.0-8.0-1.75,Big-visSmall/05_25.jpg,m,Small-visBig/05_54.jpg,486,"
            <img src=""Big-visSmall/05_25.jpg"" style=""margin-right: 50px""> 
            <img src=""Small-visBig/05_54.jpg"" style=""margin-left: 50px"">
            ",,225377,,262,html-keyboard-response,incongruent,
14,long,,,,,,,0.0-8.0-2.75,,,,,,,226277,,263,html-keyboard-response,,
14,long,,,,,,,0.0-8.0-0.76,,,,,"<div style=""font-size:60px;"">+</div>",,226979,,264,html-keyboard-response,,
14,long,big,True,,,,preset,0.0-8.0-1.76,Big-visBig/23_16.jpg,c,Small-visSmall/24_61.jpg,369,"
            <img src=""Big-visBig/23_16.jpg"" style=""margin-right: 50px""> 
            <img src=""Small-visSmall/24_61.jpg"" style=""margin-left: 50px"">
            ",,227348,,265,html-keyboard-response,congruent,
14,long,,,,,,,0.0-8.0-2.76,,,,,,,228250,,266,html-keyboard-response,,
14,long,,,,,,,0.0-8.0-0.77,,,,,"<div style=""font-size:60px;"">+</div>",,228981,,267,html-keyboard-response,,
14,long,big,True,,,,preset,0.0-8.0-1.77,Big-visSmall/15_29.jpg,m,Small-visBig/16_73.jpg,460,"
            <img src=""Big-visSmall/15_29.jpg"" style=""margin-right: 50px""> 
            <img src=""Small-visBig/16_73.jpg"" style=""margin-left: 50px"">
            ",,229443,,268,html-keyboard-response,incongruent,
14,long,,,,,,,0.0-8.0-2.77,,,,,,,230343,,269,html-keyboard-response,,
14,long,,,,,,,0.0-8.0-0.78,,,,,"<div style=""font-size:60px;"">+</div>",,231044,,270,html-keyboard-response,,
14,long,big,True,,,,preset,0.0-8.0-1.78,Small-visSmall/29_69.jpg,m,Big-visBig/28_12.jpg,619,"
            <img src=""Small-visSmall/29_69.jpg"" style=""margin-right: 50px""> 
            <img src=""Big-visBig/28_12.jpg"" style=""margin-left: 50px"">
            ",,231664,,271,html-keyboard-response,congruent,
14,long,,,,,,,0.0-8.0-2.78,,,,,,,232565,,272,html-keyboard-response,,
14,long,,,,,,,0.0-8.0-0.79,,,,,"<div style=""font-size:60px;"">+</div>",,233266,,273,html-keyboard-response,,
14,long,big,True,,,,preset,0.0-8.0-1.79,Big-visSmall/11_40.jpg,m,Small-visBig/11_71.jpg,491,"
            <img src=""Big-visSmall/11_40.jpg"" style=""margin-right: 50px""> 
            <img src=""Small-visBig/11_71.jpg"" style=""margin-left: 50px"">
            ",,233759,,274,html-keyboard-response,incongruent,
14,long,,,,,,,0.0-8.0-2.79,,,,,,,234660,,275,html-keyboard-response,,
14,long,,,,,,,0.0-8.0-0.80,,,,,"<div style=""font-size:60px;"">+</div>",,235360,,276,html-keyboard-response,,
14,long,big,True,,,,preset,0.0-8.0-1.80,Big-visSmall/24_06.jpg,m,Small-visBig/25_56.jpg,576,"
            <img src=""Big-visSmall/24_06.jpg"" style=""margin-right: 50px""> 
            <img src=""Small-visBig/25_56.jpg"" style=""margin-left: 50px"">
            ",,235938,,277,html-keyboard-response,incongruent,
14,long,,,,,,,0.0-8.0-2.80,,,,,,,236838,,278,html-keyboard-response,,
14,long,,,,,,,0.0-8.0-0.81,,,,,"<div style=""font-size:60px;"">+</div>",,237540,,279,html-keyboard-response,,
14,long,big,True,,,,preset,0.0-8.0-1.81,Big-visBig/19_17.jpg,c,Small-visSmall/20_79.jpg,511,"
            <img src=""Big-visBig/19_17.jpg"" style=""margin-right: 50px""> 
            <img src=""Small-visSmall/20_79.jpg"" style=""margin-left: 50px"">
            ",,238052,,280,html-keyboard-response,congruent,
14,long,,,,,,,0.0-8.0-2.81,,,,,,,238954,,281,html-keyboard-response,,
14,long,,,,,,,0.0-8.0-0.82,,,,,"<div style=""font-size:60px;"">+</div>",,239655,,282,html-keyboard-response,,
14,long,big,True,,,,preset,0.0-8.0-1.82,Big-visSmall/28_12.jpg,m,Small-visBig/29_69.jpg,535,"
            <img src=""Big-visSmall/28_12.jpg"" style=""margin-right: 50px""> 
            <img src=""Small-visBig/29_69.jpg"" style=""margin-left: 50px"">
            ",,240190,,283,html-keyboard-response,incongruent,
14,long,,,,,,,0.0-8.0-2.82,,,,,,,241092,,284,html-keyboard-response,,
14,long,,,,,,,0.0-8.0-0.83,,,,,"<div style=""font-size:60px;"">+</div>",,241793,,285,html-keyboard-response,,
14,long,big,True,,,,preset,0.0-8.0-1.83,Big-visBig/15_29.jpg,c,Small-visSmall/16_73.jpg,537,"
            <img src=""Big-visBig/15_29.jpg"" style=""margin-right: 50px""> 
            <img src=""Small-visSmall/16_73.jpg"" style=""margin-left: 50px"">
            ",,242332,,286,html-keyboard-response,congruent,
14,long,,,,,,,0.0-8.0-2.83,,,,,,,243233,,287,html-keyboard-response,,
14,long,,,,,,,0.0-8.0-0.84,,,,,"<div style=""font-size:60px;"">+</div>",,243934,,288,html-keyboard-response,,
14,long,big,True,,,,preset,0.0-8.0-1.84,Small-visBig/27_63.jpg,c,Big-visSmall/26_32.jpg,504,"
            <img src=""Small-visBig/27_63.jpg"" style=""margin-right: 50px""> 
            <img src=""Big-visSmall/26_32.jpg"" style=""margin-left: 50px"">
            ",,244441,,289,html-keyboard-response,incongruent,
14,long,,,,,,,0.0-8.0-2.84,,,,,,,245341,,290,html-keyboard-response,,
14,long,,,,,,,0.0-8.0-0.85,,,,,"<div style=""font-size:60px;"">+</div>",,246043,,291,html-keyboard-response,,
14,long,big,True,,,,preset,0.0-8.0-1.85,Small-visBig/05_54.jpg,c,Big-visSmall/05_25.jpg,643,"
            <img src=""Small-visBig/05_54.jpg"" style=""margin-right: 50px""> 
            <img src=""Big-visSmall/05_25.jpg"" style=""margin-left: 50px"">
            ",,246687,,292,html-keyboard-response,incongruent,
14,long,,,,,,,0.0-8.0-2.85,,,,,,,247589,,293,html-keyboard-response,,
14,long,,,,,,,0.0-8.0-0.86,,,,,"<div style=""font-size:60px;"">+</div>",,248291,,294,html-keyboard-response,,
14,long,big,True,,,,preset,0.0-8.0-1.86,Small-visSmall/02_44.jpg,m,Big-visBig/02_08.jpg,737,"
            <img src=""Small-visSmall/02_44.jpg"" style=""margin-right: 50px""> 
            <img src=""Big-visBig/02_08.jpg"" style=""margin-left: 50px"">
            ",,249028,,295,html-keyboard-response,congruent,
14,long,,,,,,,0.0-8.0-2.86,,,,,,,249930,,296,html-keyboard-response,,
14,long,,,,,,,0.0-8.0-0.87,,,,,"<div style=""font-size:60px;"">+</div>",,250631,,297,html-keyboard-response,,
14,long,big,True,,,,preset,0.0-8.0-1.87,Small-visSmall/19_41.jpg,m,Big-visBig/18_23.jpg,500,"
            <img src=""Small-visSmall/19_41.jpg"" style=""margin-right: 50px""> 
            <img src=""Big-visBig/18_23.jpg"" style=""margin-left: 50px"">
            ",,251132,,298,html-keyboard-response,congruent,
14,long,,,,,,,0.0-8.0-2.87,,,,,,,252033,,299,html-keyboard-response,,
14,long,,,,,,,0.0-8.0-0.88,,,,,"<div style=""font-size:60px;"">+</div>",,252734,,300,html-keyboard-response,,
14,long,big,True,,,,preset,0.0-8.0-1.88,Big-visSmall/12_13.jpg,m,Small-visBig/12_58.jpg,533,"
            <img src=""Big-visSmall/12_13.jpg"" style=""margin-right: 50px""> 
            <img src=""Small-visBig/12_58.jpg"" style=""margin-left: 50px"">
            ",,253269,,301,html-keyboard-response,incongruent,
14,long,,,,,,,0.0-8.0-2.88,,,,,,,254170,,302,html-keyboard-response,,
14,long,,,,,,,0.0-8.0-0.89,,,,,"<div style=""font-size:60px;"">+</div>",,254872,,303,html-keyboard-response,,
14,long,big,True,,,,preset,0.0-8.0-1.89,Big-visBig/30_20.jpg,c,Small-visSmall/undefined,35569,"
            <img src=""Big-visBig/30_20.jpg"" style=""margin-right: 50px""> 
            <img src=""Small-visSmall/undefined"" style=""margin-left: 50px"">
            ",,290441,,304,html-keyboard-response,congruent,
14,long,,,,,,,0.0-8.0-2.89,,,,,,,291343,,305,html-keyboard-response,,
14,long,,,,,,,0.0-8.0-0.90,,,,,"<div style=""font-size:60px;"">+</div>",,292044,,306,html-keyboard-response,,
14,long,big,True,,,,preset,0.0-8.0-1.90,Small-visSmall/16_73.jpg,m,Big-visBig/15_29.jpg,1880,"
            <img src=""Small-visSmall/16_73.jpg"" style=""margin-right: 50px""> 
            <img src=""Big-visBig/15_29.jpg"" style=""margin-left: 50px"">
            ",,293926,,307,html-keyboard-response,congruent,
14,long,,,,,,,0.0-8.0-2.90,,,,,,,294827,,308,html-keyboard-response,,
14,long,,,,,,,0.0-8.0-0.91,,,,,"<div style=""font-size:60px;"">+</div>",,295529,,309,html-keyboard-response,,
14,long,big,True,,,,preset,0.0-8.0-1.91,Small-visSmall/03_57.jpg,m,Big-visBig/03_36.jpg,906,"
            <img src=""Small-visSmall/03_57.jpg"" style=""margin-right: 50px""> 
            <img src=""Big-visBig/03_36.jpg"" style=""margin-left: 50px"">
            ",,296436,,310,html-keyboard-response,congruent,
14,long,,,,,,,0.0-8.0-2.91,,,,,,,297337,,311,html-keyboard-response,,
14,long,,,,,,,0.0-8.0-0.92,,,,,"<div style=""font-size:60px;"">+</div>",,298038,,312,html-keyboard-response,,
14,long,big,False,,,,preset,0.0-8.0-1.92,Small-visBig/14_67.jpg,m,Big-visSmall/14_34.jpg,490,"
            <img src=""Small-visBig/14_67.jpg"" style=""margin-right: 50px""> 
            <img src=""Big-visSmall/14_34.jpg"" style=""margin-left: 50px"">
            ",,298530,,313,html-keyboard-response,incongruent,
14,long,,,,,,,0.0-8.0-2.92,,,,,"<div style=""font-size:60px; color:#FF0000""><p>Incorrect!</p></div>",,303531,,314,html-keyboard-response,,
14,long,,,,,,,0.0-8.0-0.93,,,,,"<div style=""font-size:60px;"">+</div>",,304232,,315,html-keyboard-response,,
14,long,big,True,,,,preset,0.0-8.0-1.93,Big-visSmall/30_20.jpg,m,Small-visBig/undefined,11855,"
            <img src=""Big-visSmall/30_20.jpg"" style=""margin-right: 50px""> 
            <img src=""Small-visBig/undefined"" style=""margin-left: 50px"">
            ",,316090,,316,html-keyboard-response,incongruent,
14,long,,,,,,,0.0-8.0-2.93,,,,,,,316990,,317,html-keyboard-response,,
14,long,,,,,,,0.0-8.0-0.94,,,,,"<div style=""font-size:60px;"">+</div>",,317692,,318,html-keyboard-response,,
14,long,big,True,,,,preset,0.0-8.0-1.94,Small-visSmall/18_76.jpg,m,Big-visBig/17_21.jpg,2892,"
            <img src=""Small-visSmall/18_76.jpg"" style=""margin-right: 50px""> 
            <img src=""Big-visBig/17_21.jpg"" style=""margin-left: 50px"">
            ",,320589,,319,html-keyboard-response,congruent,
14,long,,,,,,,0.0-8.0-2.94,,,,,,,321491,,320,html-keyboard-response,,
14,long,,,,,,,0.0-8.0-0.95,,,,,"<div style=""font-size:60px;"">+</div>",,322192,,321,html-keyboard-response,,
14,long,big,True,,,,preset,0.0-8.0-1.95,Small-visBig/undefined,c,Big-visSmall/30_20.jpg,6696,"
            <img src=""Small-visBig/undefined"" style=""margin-right: 50px""> 
            <img src=""Big-visSmall/30_20.jpg"" style=""margin-left: 50px"">
            ",,328889,,322,html-keyboard-response,incongruent,
14,long,,,,,,,0.0-8.0-2.95,,,,,,,329791,,323,html-keyboard-response,,
14,long,,,,,,,0.0-8.0-0.96,,,,,"<div style=""font-size:60px;"">+</div>",,330491,,324,html-keyboard-response,,
14,long,big,True,,,,preset,0.0-8.0-1.96,Small-visBig/04_48.jpg,c,Big-visSmall/04_05.jpg,876,"
            <img src=""Small-visBig/04_48.jpg"" style=""margin-right: 50px""> 
            <img src=""Big-visSmall/04_05.jpg"" style=""margin-left: 50px"">
            ",,331369,,325,html-keyboard-response,incongruent,
14,long,,,,,,,0.0-8.0-2.96,,,,,,,332269,,326,html-keyboard-response,,
14,long,,,,,,,0.0-8.0-0.97,,,,,"<div style=""font-size:60px;"">+</div>",,332970,,327,html-keyboard-response,,
14,long,big,True,,,,preset,0.0-8.0-1.97,Big-visSmall/10_09.jpg,m,Small-visBig/10_59.jpg,570,"
            <img src=""Big-visSmall/10_09.jpg"" style=""margin-right: 50px""> 
            <img src=""Small-visBig/10_59.jpg"" style=""margin-left: 50px"">
            ",,333541,,328,html-keyboard-response,incongruent,
14,long,,,,,,,0.0-8.0-2.97,,,,,,,334442,,329,html-keyboard-response,,
14,long,,,,,,,0.0-8.0-0.98,,,,,"<div style=""font-size:60px;"">+</div>",,335143,,330,html-keyboard-response,,
14,long,big,True,,,,preset,0.0-8.0-1.98,Small-visBig/25_56.jpg,c,Big-visSmall/24_06.jpg,584,"
            <img src=""Small-visBig/25_56.jpg"" style=""margin-right: 50px""> 
            <img src=""Big-visSmall/24_06.jpg"" style=""margin-left: 50px"">
            ",,335728,,331,html-keyboard-response,incongruent,
14,long,,,,,,,0.0-8.0-2.98,,,,,,,336629,,332,html-keyboard-response,,
14,long,,,,,,,0.0-8.0-0.99,,,,,"<div style=""font-size:60px;"">+</div>",,337329,,333,html-keyboard-response,,
14,long,big,True,,,,preset,0.0-8.0-1.99,Big-visBig/16_28.jpg,c,Small-visSmall/17_80.jpg,574,"
            <img src=""Big-visBig/16_28.jpg"" style=""margin-right: 50px""> 
            <img src=""Small-visSmall/17_80.jpg"" style=""margin-left: 50px"">
            ",,337903,,334,html-keyboard-response,congruent,
14,long,,,,,,,0.0-8.0-2.99,,,,,,,338805,,335,html-keyboard-response,,
14,long,,,,,,,0.0-8.0-0.100,,,,,"<div style=""font-size:60px;"">+</div>",,339506,,336,html-keyboard-response,,
14,long,big,True,,,,preset,0.0-8.0-1.100,Big-visSmall/14_34.jpg,m,Small-visBig/15_72.jpg,551,"
            <img src=""Big-visSmall/14_34.jpg"" style=""margin-right: 50px""> 
            <img src=""Small-visBig/15_72.jpg"" style=""margin-left: 50px"">
            ",,340060,,337,html-keyboard-response,incongruent,
14,long,,,,,,,0.0-8.0-2.100,,,,,,,340961,,338,html-keyboard-response,,
14,long,,,,,,,0.0-8.0-0.101,,,,,"<div style=""font-size:60px;"">+</div>",,341662,,339,html-keyboard-response,,
14,long,big,True,,,,preset,0.0-8.0-1.101,Big-visSmall/06_02.jpg,m,Small-visBig/06_43.jpg,797,"
            <img src=""Big-visSmall/06_02.jpg"" style=""margin-right: 50px""> 
            <img src=""Small-visBig/06_43.jpg"" style=""margin-left: 50px"">
            ",,342460,,340,html-keyboard-response,incongruent,
14,long,,,,,,,0.0-8.0-2.101,,,,,,,343361,,341,html-keyboard-response,,
14,long,,,,,,,0.0-8.0-0.102,,,,,"<div style=""font-size:60px;"">+</div>",,344062,,342,html-keyboard-response,,
14,long,big,True,,,,preset,0.0-8.0-1.102,Small-visSmall/11_71.jpg,m,Big-visBig/11_40.jpg,455,"
            <img src=""Small-visSmall/11_71.jpg"" style=""margin-right: 50px""> 
            <img src=""Big-visBig/11_40.jpg"" style=""margin-left: 50px"">
            ",,344519,,343,html-keyboard-response,congruent,
14,long,,,,,,,0.0-8.0-2.102,,,,,,,345420,,344,html-keyboard-response,,
14,long,,,,,,,0.0-8.0-0.103,,,,,"<div style=""font-size:60px;"">+</div>",,346121,,345,html-keyboard-response,,
14,long,big,True,,,,preset,0.0-8.0-1.103,Small-visSmall/01_78.jpg,m,Big-visBig/01_07.jpg,497,"
            <img src=""Small-visSmall/01_78.jpg"" style=""margin-right: 50px""> 
            <img src=""Big-visBig/01_07.jpg"" style=""margin-left: 50px"">
            ",,346619,,346,html-keyboard-response,congruent,
14,long,,,,,,,0.0-8.0-2.103,,,,,,,347521,,347,html-keyboard-response,,
14,long,,,,,,,0.0-8.0-0.104,,,,,"<div style=""font-size:60px;"">+</div>",,348222,,348,html-keyboard-response,,
14,long,big,True,,,,preset,0.0-8.0-1.104,Small-visBig/12_58.jpg,c,Big-visSmall/12_13.jpg,673,"
            <img src=""Small-visBig/12_58.jpg"" style=""margin-right: 50px""> 
            <img src=""Big-visSmall/12_13.jpg"" style=""margin-left: 50px"">
            ",,348896,,349,html-keyboard-response,incongruent,
14,long,,,,,,,0.0-8.0-2.104,,,,,,,349797,,350,html-keyboard-response,,
14,long,,,,,,,0.0-8.0-0.105,,,,,"<div style=""font-size:60px;"">+</div>",,350499,,351,html-keyboard-response,,
14,long,big,True,,,,preset,0.0-8.0-1.105,Big-visBig/28_12.jpg,c,Small-visSmall/29_69.jpg,473,"
            <img src=""Big-visBig/28_12.jpg"" style=""margin-right: 50px""> 
            <img src=""Small-visSmall/29_69.jpg"" style=""margin-left: 50px"">
            ",,350972,,352,html-keyboard-response,congruent,
14,long,,,,,,,0.0-8.0-2.105,,,,,,,351874,,353,html-keyboard-response,,
14,long,,,,,,,0.0-8.0-0.106,,,,,"<div style=""font-size:60px;"">+</div>",,352574,,354,html-keyboard-response,,
14,long,big,True,,,,preset,0.0-8.0-1.106,Big-visSmall/14_34.jpg,m,Small-visBig/14_67.jpg,553,"
            <img src=""Big-visSmall/14_34.jpg"" style=""margin-right: 50px""> 
            <img src=""Small-visBig/14_67.jpg"" style=""margin-left: 50px"">
            ",,353129,,355,html-keyboard-response,incongruent,
14,long,,,,,,,0.0-8.0-2.106,,,,,,,354029,,356,html-keyboard-response,,
14,long,,,,,,,0.0-8.0-0.107,,,,,"<div style=""font-size:60px;"">+</div>",,354731,,357,html-keyboard-response,,
14,long,big,True,,,,preset,0.0-8.0-1.107,Big-visBig/07_33.jpg,c,Small-visSmall/07_51.jpg,529,"
            <img src=""Big-visBig/07_33.jpg"" style=""margin-right: 50px""> 
            <img src=""Small-visSmall/07_51.jpg"" style=""margin-left: 50px"">
            ",,355261,,358,html-keyboard-response,congruent,
14,long,,,,,,,0.0-8.0-2.107,,,,,,,356162,,359,html-keyboard-response,,
14,long,,,,,,,0.0-8.0-0.108,,,,,"<div style=""font-size:60px;"">+</div>",,356864,,360,html-keyboard-response,,
14,long,big,True,,,,preset,0.0-8.0-1.108,Small-visBig/10_59.jpg,c,Big-visSmall/10_09.jpg,481,"
            <img src=""Small-visBig/10_59.jpg"" style=""margin-right: 50px""> 
            <img src=""Big-visSmall/10_09.jpg"" style=""margin-left: 50px"">
            ",,357346,,361,html-keyboard-response,incongruent,
14,long,,,,,,,0.0-8.0-2.108,,,,,,,358247,,362,html-keyboard-response,,
14,long,,,,,,,0.0-8.0-0.109,,,,,"<div style=""font-size:60px;"">+</div>",,358949,,363,html-keyboard-response,,
14,long,big,True,,,,preset,0.0-8.0-1.109,Small-visBig/20_79.jpg,c,Big-visSmall/19_17.jpg,482,"
            <img src=""Small-visBig/20_79.jpg"" style=""margin-right: 50px""> 
            <img src=""Big-visSmall/19_17.jpg"" style=""margin-left: 50px"">
            ",,359432,,364,html-keyboard-response,incongruent,
14,long,,,,,,,0.0-8.0-2.109,,,,,,,360334,,365,html-keyboard-response,,
14,long,,,,,,,0.0-8.0-0.110,,,,,"<div style=""font-size:60px;"">+</div>",,361035,,366,html-keyboard-response,,
14,long,big,True,,,,preset,0.0-8.0-1.110,Small-visBig/06_43.jpg,c,Big-visSmall/06_02.jpg,476,"
            <img src=""Small-visBig/06_43.jpg"" style=""margin-right: 50px""> 
            <img src=""Big-visSmall/06_02.jpg"" style=""margin-left: 50px"">
            ",,361512,,367,html-keyboard-response,incongruent,
14,long,,,,,,,0.0-8.0-2.110,,,,,,,362413,,368,html-keyboard-response,,
14,long,,,,,,,0.0-8.0-0.111,,,,,"<div style=""font-size:60px;"">+</div>",,363114,,369,html-keyboard-response,,
14,long,big,True,,,,preset,0.0-8.0-1.111,Big-visSmall/13_19.jpg,m,Small-visBig/13_77.jpg,1099,"
            <img src=""Big-visSmall/13_19.jpg"" style=""margin-right: 50px""> 
            <img src=""Small-visBig/13_77.jpg"" style=""margin-left: 50px"">
            ",,364214,,370,html-keyboard-response,incongruent,
14,long,,,,,,,0.0-8.0-2.111,,,,,,,365115,,371,html-keyboard-response,,
14,long,,,,,,,0.0-8.0-0.112,,,,,"<div style=""font-size:60px;"">+</div>",,365816,,372,html-keyboard-response,,
14,long,big,True,,,,preset,0.0-8.0-1.112,Big-visSmall/16_28.jpg,m,Small-visBig/17_80.jpg,661,"
            <img src=""Big-visSmall/16_28.jpg"" style=""margin-right: 50px""> 
            <img src=""Small-visBig/17_80.jpg"" style=""margin-left: 50px"">
            ",,366477,,373,html-keyboard-response,incongruent,
14,long,,,,,,,0.0-8.0-2.112,,,,,,,367378,,374,html-keyboard-response,,
14,long,,,,,,,0.0-8.0-0.113,,,,,"<div style=""font-size:60px;"">+</div>",,368079,,375,html-keyboard-response,,
14,long,big,True,,,,preset,0.0-8.0-1.113,Small-visSmall/14_67.jpg,m,Big-visBig/14_34.jpg,605,"
            <img src=""Small-visSmall/14_67.jpg"" style=""margin-right: 50px""> 
            <img src=""Big-visBig/14_34.jpg"" style=""margin-left: 50px"">
            ",,368685,,376,html-keyboard-response,congruent,
14,long,,,,,,,0.0-8.0-2.113,,,,,,,369585,,377,html-keyboard-response,,
14,long,,,,,,,0.0-8.0-0.114,,,,,"<div style=""font-size:60px;"">+</div>",,370287,,378,html-keyboard-response,,
14,long,big,True,,,,preset,0.0-8.0-1.114,Small-visSmall/27_63.jpg,m,Big-visBig/26_32.jpg,510,"
            <img src=""Small-visSmall/27_63.jpg"" style=""margin-right: 50px""> 
            <img src=""Big-visBig/26_32.jpg"" style=""margin-left: 50px"">
            ",,370798,,379,html-keyboard-response,congruent,
14,long,,,,,,,0.0-8.0-2.114,,,,,,,371700,,380,html-keyboard-response,,
14,long,,,,,,,0.0-8.0-0.115,,,,,"<div style=""font-size:60px;"">+</div>",,372401,,381,html-keyboard-response,,
14,long,big,True,,,,preset,0.0-8.0-1.115,Big-visSmall/01_07.jpg,m,Small-visBig/01_78.jpg,477,"
            <img src=""Big-visSmall/01_07.jpg"" style=""margin-right: 50px""> 
            <img src=""Small-visBig/01_78.jpg"" style=""margin-left: 50px"">
            ",,372878,,382,html-keyboard-response,incongruent,
14,long,,,,,,,0.0-8.0-2.115,,,,,,,373779,,383,html-keyboard-response,,
14,long,,,,,,,0.0-8.0-0.116,,,,,"<div style=""font-size:60px;"">+</div>",,374480,,384,html-keyboard-response,,
14,long,big,True,,,,preset,0.0-8.0-1.116,Small-visBig/26_42.jpg,c,Big-visSmall/25_10.jpg,484,"
            <img src=""Small-visBig/26_42.jpg"" style=""margin-right: 50px""> 
            <img src=""Big-visSmall/25_10.jpg"" style=""margin-left: 50px"">
            ",,374966,,385,html-keyboard-response,incongruent,
14,long,,,,,,,0.0-8.0-2.116,,,,,,,375866,,386,html-keyboard-response,,
14,long,,,,,,,0.0-8.0-0.117,,,,,"<div style=""font-size:60px;"">+</div>",,376568,,387,html-keyboard-response,,
14,long,big,True,,,,preset,0.0-8.0-1.117,Small-visBig/29_69.jpg,c,Big-visSmall/28_12.jpg,433,"
            <img src=""Small-visBig/29_69.jpg"" style=""margin-right: 50px""> 
            <img src=""Big-visSmall/28_12.jpg"" style=""margin-left: 50px"">
            ",,377001,,388,html-keyboard-response,incongruent,
14,long,,,,,,,0.0-8.0-2.117,,,,,,,377902,,389,html-keyboard-response,,
14,long,,,,,,,0.0-8.0-0.118,,,,,"<div style=""font-size:60px;"">+</div>",,378603,,390,html-keyboard-response,,
14,long,big,True,,,,preset,0.0-8.0-1.118,Small-visBig/23_70.jpg,c,Big-visSmall/22_26.jpg,403,"
            <img src=""Small-visBig/23_70.jpg"" style=""margin-right: 50px""> 
            <img src=""Big-visSmall/22_26.jpg"" style=""margin-left: 50px"">
            ",,379007,,391,html-keyboard-response,incongruent,
14,long,,,,,,,0.0-8.0-2.118,,,,,,,379907,,392,html-keyboard-response,,
14,long,,,,,,,0.0-8.0-0.119,,,,,"<div style=""font-size:60px;"">+</div>",,380609,,393,html-keyboard-response,,
14,long,big,True,,,,preset,0.0-8.0-1.119,Big-visBig/22_26.jpg,c,Small-visSmall/23_70.jpg,429,"
            <img src=""Big-visBig/22_26.jpg"" style=""margin-right: 50px""> 
            <img src=""Small-visSmall/23_70.jpg"" style=""margin-left: 50px"">
            ",,381039,,394,html-keyboard-response,congruent,
14,long,,,,,,,0.0-8.0-2.119,,,,,,,381941,,395,html-keyboard-response,,
14,long,,,,,,,0.0-8.0-0.120,,,,,"<div style=""font-size:60px;"">+</div>",,382641,,396,html-keyboard-response,,
14,long,big,True,,,,preset,0.0-8.0-1.120,Small-visSmall/20_79.jpg,m,Big-visBig/19_17.jpg,507,"
            <img src=""Small-visSmall/20_79.jpg"" style=""margin-right: 50px""> 
            <img src=""Big-visBig/19_17.jpg"" style=""margin-left: 50px"">
            ",,383150,,397,html-keyboard-response,congruent,
14,long,,,,,,,0.0-8.0-2.120,,,,,,,384051,,398,html-keyboard-response,,
14,long,,,,,,,0.0-8.0-0.121,,,,,"<div style=""font-size:60px;"">+</div>",,384752,,399,html-keyboard-response,,
14,long,big,True,,,,preset,0.0-8.0-1.121,Small-visBig/13_77.jpg,c,Big-visSmall/13_19.jpg,456,"
            <img src=""Small-visBig/13_77.jpg"" style=""margin-right: 50px""> 
            <img src=""Big-visSmall/13_19.jpg"" style=""margin-left: 50px"">
            ",,385210,,400,html-keyboard-response,incongruent,
14,long,,,,,,,0.0-8.0-2.121,,,,,,,386111,,401,html-keyboard-response,,
14,long,,,,,,,0.0-8.0-0.122,,,,,"<div style=""font-size:60px;"">+</div>",,386812,,402,html-keyboard-response,,
14,long,big,True,,,,preset,0.0-8.0-1.122,Big-visBig/12_13.jpg,c,Small-visSmall/12_58.jpg,414,"
            <img src=""Big-visBig/12_13.jpg"" style=""margin-right: 50px""> 
            <img src=""Small-visSmall/12_58.jpg"" style=""margin-left: 50px"">
            ",,387227,,403,html-keyboard-response,congruent,
14,long,,,,,,,0.0-8.0-2.122,,,,,,,388128,,404,html-keyboard-response,,
14,long,,,,,,,0.0-8.0-0.123,,,,,"<div style=""font-size:60px;"">+</div>",,388829,,405,html-keyboard-response,,
14,long,big,True,,,,preset,0.0-8.0-1.123,Big-visSmall/26_32.jpg,m,Small-visBig/27_63.jpg,542,"
            <img src=""Big-visSmall/26_32.jpg"" style=""margin-right: 50px""> 
            <img src=""Small-visBig/27_63.jpg"" style=""margin-left: 50px"">
            ",,389372,,406,html-keyboard-response,incongruent,
14,long,,,,,,,0.0-8.0-2.123,,,,,,,390274,,407,html-keyboard-response,,
14,long,,,,,,,0.0-9.0-0.0,, ,,2345,"<p> Great job! You are <b>25%</b> done. Take a break and press space when you are ready to keep going! </p> <br> <p>You will have a new task, so please <b> read instructions carefully. </b> </p>",,392619,,408,html-keyboard-response,,
14,long,,,,,,,0.0-10.0-0.0,, ,,1128,"<p> <b> Block 2 out of 4 (5 minutes): </b></b>Which image is <b>smaller</b>?</p><br><p>Press <b>c</b> for image on left, and <b>m</b> for image on right as quickly and accurately as possible. </p> <br> <p> Press space to continue.</p>",,393747,,409,html-keyboard-response,,
14,long,,,,,,,0.0-11.0-0.0,,,,,"<div style=""font-size:60px;"">+</div>",,394448,,410,html-keyboard-response,,
14,long,small,True,,,,preset,0.0-11.0-1.0,Big-visSmall/24_06.jpg,c,Small-visBig/25_56.jpg,716,"
            <img src=""Big-visSmall/24_06.jpg"" style=""margin-right: 50px""> 
            <img src=""Small-visBig/25_56.jpg"" style=""margin-left: 50px"">
            ",,395166,,411,html-keyboard-response,incongruent,
14,long,,,,,,,0.0-11.0-2.0,,,,,,,396066,,412,html-keyboard-response,,
14,long,,,,,,,0.0-11.0-0.1,,,,,"<div style=""font-size:60px;"">+</div>",,396768,,413,html-keyboard-response,,
14,long,small,True,,,,preset,0.0-11.0-1.1,Big-visBig/21_31.jpg,m,Small-visSmall/22_65.jpg,553,"
            <img src=""Big-visBig/21_31.jpg"" style=""margin-right: 50px""> 
            <img src=""Small-visSmall/22_65.jpg"" style=""margin-left: 50px"">
            ",,397321,,414,html-keyboard-response,congruent,
14,long,,,,,,,0.0-11.0-2.1,,,,,,,398223,,415,html-keyboard-response,,
14,long,,,,,,,0.0-11.0-0.2,,,,,"<div style=""font-size:60px;"">+</div>",,398924,,416,html-keyboard-response,,
14,long,small,True,,,,preset,0.0-11.0-1.2,Small-visBig/30_50.jpg,m,Big-visSmall/29_03.jpg,531,"
            <img src=""Small-visBig/30_50.jpg"" style=""margin-right: 50px""> 
            <img src=""Big-visSmall/29_03.jpg"" style=""margin-left: 50px"">
            ",,399456,,417,html-keyboard-response,incongruent,
14,long,,,,,,,0.0-11.0-2.2,,,,,,,400357,,418,html-keyboard-response,,
14,long,,,,,,,0.0-11.0-0.3,,,,,"<div style=""font-size:60px;"">+</div>",,401058,,419,html-keyboard-response,,
14,long,small,True,,,,preset,0.0-11.0-1.3,Big-visSmall/08_35.jpg,c,Small-visBig/08_45.jpg,488,"
            <img src=""Big-visSmall/08_35.jpg"" style=""margin-right: 50px""> 
            <img src=""Small-visBig/08_45.jpg"" style=""margin-left: 50px"">
            ",,401547,,420,html-keyboard-response,incongruent,
14,long,,,,,,,0.0-11.0-2.3,,,,,,,402448,,421,html-keyboard-response,,
14,long,,,,,,,0.0-11.0-0.4,,,,,"<div style=""font-size:60px;"">+</div>",,403150,,422,html-keyboard-response,,
14,long,small,True,,,,preset,0.0-11.0-1.4,Big-visBig/09_15.jpg,m,Small-visSmall/09_64.jpg,525,"
            <img src=""Big-visBig/09_15.jpg"" style=""margin-right: 50px""> 
            <img src=""Small-visSmall/09_64.jpg"" style=""margin-left: 50px"">
            ",,403675,,423,html-keyboard-response,congruent,
14,long,,,,,,,0.0-11.0-2.4,,,,,,,404576,,424,html-keyboard-response,,
14,long,,,,,,,0.0-11.0-0.5,,,,,"<div style=""font-size:60px;"">+</div>",,405278,,425,html-keyboard-response,,
14,long,small,True,,,,preset,0.0-11.0-1.5,Small-visSmall/30_50.jpg,c,Big-visBig/29_03.jpg,441,"
            <img src=""Small-visSmall/30_50.jpg"" style=""margin-right: 50px""> 
            <img src=""Big-visBig/29_03.jpg"" style=""margin-left: 50px"">
            ",,405720,,426,html-keyboard-response,congruent,
14,long,,,,,,,0.0-11.0-2.5,,,,,,,406620,,427,html-keyboard-response,,
14,long,,,,,,,0.0-11.0-0.6,,,,,"<div style=""font-size:60px;"">+</div>",,407322,,428,html-keyboard-response,,
14,long,small,True,,,,preset,0.0-11.0-1.6,Small-visSmall/27_63.jpg,c,Big-visBig/26_32.jpg,446,"
            <img src=""Small-visSmall/27_63.jpg"" style=""margin-right: 50px""> 
            <img src=""Big-visBig/26_32.jpg"" style=""margin-left: 50px"">
            ",,407769,,429,html-keyboard-response,congruent,
14,long,,,,,,,0.0-11.0-2.6,,,,,,,408670,,430,html-keyboard-response,,
14,long,,,,,,,0.0-11.0-0.7,,,,,"<div style=""font-size:60px;"">+</div>",,409371,,431,html-keyboard-response,,
14,long,small,True,,,,preset,0.0-11.0-1.7,Big-visBig/23_16.jpg,m,Small-visSmall/24_61.jpg,449,"
            <img src=""Big-visBig/23_16.jpg"" style=""margin-right: 50px""> 
            <img src=""Small-visSmall/24_61.jpg"" style=""margin-left: 50px"">
            ",,409821,,432,html-keyboard-response,congruent,
14,long,,,,,,,0.0-11.0-2.7,,,,,,,410723,,433,html-keyboard-response,,
14,long,,,,,,,0.0-11.0-0.8,,,,,"<div style=""font-size:60px;"">+</div>",,411424,,434,html-keyboard-response,,
14,long,small,True,,,,preset,0.0-11.0-1.8,Big-visBig/20_38.jpg,m,Small-visSmall/21_52.jpg,448,"
            <img src=""Big-visBig/20_38.jpg"" style=""margin-right: 50px""> 
            <img src=""Small-visSmall/21_52.jpg"" style=""margin-left: 50px"">
            ",,411872,,435,html-keyboard-response,congruent,
14,long,,,,,,,0.0-11.0-2.8,,,,,,,412774,,436,html-keyboard-response,,
14,long,,,,,,,0.0-11.0-0.9,,,,,"<div style=""font-size:60px;"">+</div>",,413475,,437,html-keyboard-response,,
14,long,small,False,,,,preset,0.0-11.0-1.9,Small-visBig/19_41.jpg,c,Big-visSmall/18_23.jpg,615,"
            <img src=""Small-visBig/19_41.jpg"" style=""margin-right: 50px""> 
            <img src=""Big-visSmall/18_23.jpg"" style=""margin-left: 50px"">
            ",,414090,,438,html-keyboard-response,incongruent,
14,long,,,,,,,0.0-11.0-2.9,,,,,"<div style=""font-size:60px; color:#FF0000""><p>Incorrect!</p></div>",,419092,,439,html-keyboard-response,,
14,long,,,,,,,0.0-11.0-0.10,,,,,"<div style=""font-size:60px;"">+</div>",,419793,,440,html-keyboard-response,,
14,long,small,True,,,,preset,0.0-11.0-1.10,Big-visSmall/14_34.jpg,c,Small-visBig/15_72.jpg,517,"
            <img src=""Big-visSmall/14_34.jpg"" style=""margin-right: 50px""> 
            <img src=""Small-visBig/15_72.jpg"" style=""margin-left: 50px"">
            ",,420311,,441,html-keyboard-response,incongruent,
14,long,,,,,,,0.0-11.0-2.10,,,,,,,421212,,442,html-keyboard-response,,
14,long,,,,,,,0.0-11.0-0.11,,,,,"<div style=""font-size:60px;"">+</div>",,421913,,443,html-keyboard-response,,
14,long,small,True,,,,preset,0.0-11.0-1.11,Small-visBig/26_42.jpg,m,Big-visSmall/25_10.jpg,916,"
            <img src=""Small-visBig/26_42.jpg"" style=""margin-right: 50px""> 
            <img src=""Big-visSmall/25_10.jpg"" style=""margin-left: 50px"">
            ",,422830,,444,html-keyboard-response,incongruent,
14,long,,,,,,,0.0-11.0-2.11,,,,,,,423732,,445,html-keyboard-response,,
14,long,,,,,,,0.0-11.0-0.12,,,,,"<div style=""font-size:60px;"">+</div>",,424432,,446,html-keyboard-response,,
14,long,small,True,,,,preset,0.0-11.0-1.12,Small-visSmall/25_56.jpg,c,Big-visBig/24_06.jpg,498,"
            <img src=""Small-visSmall/25_56.jpg"" style=""margin-right: 50px""> 
            <img src=""Big-visBig/24_06.jpg"" style=""margin-left: 50px"">
            ",,424931,,447,html-keyboard-response,congruent,
14,long,,,,,,,0.0-11.0-2.12,,,,,,,425833,,448,html-keyboard-response,,
14,long,,,,,,,0.0-11.0-0.13,,,,,"<div style=""font-size:60px;"">+</div>",,426534,,449,html-keyboard-response,,
14,long,small,True,,,,preset,0.0-11.0-1.13,Big-visSmall/21_31.jpg,c,Small-visBig/22_65.jpg,691,"
            <img src=""Big-visSmall/21_31.jpg"" style=""margin-right: 50px""> 
            <img src=""Small-visBig/22_65.jpg"" style=""margin-left: 50px"">
            ",,427224,,450,html-keyboard-response,incongruent,
14,long,,,,,,,0.0-11.0-2.13,,,,,,,428126,,451,html-keyboard-response,,
14,long,,,,,,,0.0-11.0-0.14,,,,,"<div style=""font-size:60px;"">+</div>",,428829,,452,html-keyboard-response,,
14,long,small,True,,,,preset,0.0-11.0-1.14,Big-visBig/17_21.jpg,m,Small-visSmall/18_76.jpg,1094,"
            <img src=""Big-visBig/17_21.jpg"" style=""margin-right: 50px""> 
            <img src=""Small-visSmall/18_76.jpg"" style=""margin-left: 50px"">
            ",,429925,,453,html-keyboard-response,congruent,
14,long,,,,,,,0.0-11.0-2.14,,,,,,,430825,,454,html-keyboard-response,,
14,long,,,,,,,0.0-11.0-0.15,,,,,"<div style=""font-size:60px;"">+</div>",,431527,,455,html-keyboard-response,,
14,long,small,True,,,,preset,0.0-11.0-1.15,Big-visBig/24_06.jpg,m,Small-visSmall/25_56.jpg,668,"
            <img src=""Big-visBig/24_06.jpg"" style=""margin-right: 50px""> 
            <img src=""Small-visSmall/25_56.jpg"" style=""margin-left: 50px"">
            ",,432196,,456,html-keyboard-response,congruent,
14,long,,,,,,,0.0-11.0-2.15,,,,,,,433098,,457,html-keyboard-response,,
14,long,,,,,,,0.0-11.0-0.16,,,,,"<div style=""font-size:60px;"">+</div>",,433798,,458,html-keyboard-response,,
14,long,small,True,,,,preset,0.0-11.0-1.16,Small-visSmall/17_80.jpg,c,Big-visBig/16_28.jpg,533,"
            <img src=""Small-visSmall/17_80.jpg"" style=""margin-right: 50px""> 
            <img src=""Big-visBig/16_28.jpg"" style=""margin-left: 50px"">
            ",,434332,,459,html-keyboard-response,congruent,
14,long,,,,,,,0.0-11.0-2.16,,,,,,,435233,,460,html-keyboard-response,,
14,long,,,,,,,0.0-11.0-0.17,,,,,"<div style=""font-size:60px;"">+</div>",,435935,,461,html-keyboard-response,,
14,long,small,True,,,,preset,0.0-11.0-1.17,Big-visBig/02_08.jpg,m,Small-visSmall/02_44.jpg,659,"
            <img src=""Big-visBig/02_08.jpg"" style=""margin-right: 50px""> 
            <img src=""Small-visSmall/02_44.jpg"" style=""margin-left: 50px"">
            ",,436594,,462,html-keyboard-response,congruent,
14,long,,,,,,,0.0-11.0-2.17,,,,,,,437495,,463,html-keyboard-response,,
14,long,,,,,,,0.0-11.0-0.18,,,,,"<div style=""font-size:60px;"">+</div>",,438196,,464,html-keyboard-response,,
14,long,small,True,,,,preset,0.0-11.0-1.18,Small-visSmall/05_54.jpg,c,Big-visBig/05_25.jpg,466,"
            <img src=""Small-visSmall/05_54.jpg"" style=""margin-right: 50px""> 
            <img src=""Big-visBig/05_25.jpg"" style=""margin-left: 50px"">
            ",,438664,,465,html-keyboard-response,congruent,
14,long,,,,,,,0.0-11.0-2.18,,,,,,,439565,,466,html-keyboard-response,,
14,long,,,,,,,0.0-11.0-0.19,,,,,"<div style=""font-size:60px;"">+</div>",,440267,,467,html-keyboard-response,,
14,long,small,True,,,,preset,0.0-11.0-1.19,Small-visBig/23_70.jpg,m,Big-visSmall/22_26.jpg,444,"
            <img src=""Small-visBig/23_70.jpg"" style=""margin-right: 50px""> 
            <img src=""Big-visSmall/22_26.jpg"" style=""margin-left: 50px"">
            ",,440712,,468,html-keyboard-response,incongruent,
14,long,,,,,,,0.0-11.0-2.19,,,,,,,441613,,469,html-keyboard-response,,
14,long,,,,,,,0.0-11.0-0.20,,,,,"<div style=""font-size:60px;"">+</div>",,442314,,470,html-keyboard-response,,
14,long,small,True,,,,preset,0.0-11.0-1.20,Big-visBig/16_28.jpg,m,Small-visSmall/17_80.jpg,528,"
            <img src=""Big-visBig/16_28.jpg"" style=""margin-right: 50px""> 
            <img src=""Small-visSmall/17_80.jpg"" style=""margin-left: 50px"">
            ",,442843,,471,html-keyboard-response,congruent,
14,long,,,,,,,0.0-11.0-2.20,,,,,,,443745,,472,html-keyboard-response,,
14,long,,,,,,,0.0-11.0-0.21,,,,,"<div style=""font-size:60px;"">+</div>",,444446,,473,html-keyboard-response,,
14,long,small,True,,,,preset,0.0-11.0-1.21,Small-visSmall/01_78.jpg,c,Big-visBig/01_07.jpg,495,"
            <img src=""Small-visSmall/01_78.jpg"" style=""margin-right: 50px""> 
            <img src=""Big-visBig/01_07.jpg"" style=""margin-left: 50px"">
            ",,444941,,474,html-keyboard-response,congruent,
14,long,,,,,,,0.0-11.0-2.21,,,,,,,445842,,475,html-keyboard-response,,
14,long,,,,,,,0.0-11.0-0.22,,,,,"<div style=""font-size:60px;"">+</div>",,446545,,476,html-keyboard-response,,
14,long,small,True,,,,preset,0.0-11.0-1.22,Small-visSmall/09_64.jpg,c,Big-visBig/09_15.jpg,479,"
            <img src=""Small-visSmall/09_64.jpg"" style=""margin-right: 50px""> 
            <img src=""Big-visBig/09_15.jpg"" style=""margin-left: 50px"">
            ",,447025,,477,html-keyboard-response,congruent,
14,long,,,,,,,0.0-11.0-2.22,,,,,,,447925,,478,html-keyboard-response,,
14,long,,,,,,,0.0-11.0-0.23,,,,,"<div style=""font-size:60px;"">+</div>",,448627,,479,html-keyboard-response,,
14,long,small,True,,,,preset,0.0-11.0-1.23,Big-visSmall/26_32.jpg,c,Small-visBig/27_63.jpg,454,"
            <img src=""Big-visSmall/26_32.jpg"" style=""margin-right: 50px""> 
            <img src=""Small-visBig/27_63.jpg"" style=""margin-left: 50px"">
            ",,449082,,480,html-keyboard-response,incongruent,
14,long,,,,,,,0.0-11.0-2.23,,,,,,,449983,,481,html-keyboard-response,,
14,long,,,,,,,0.0-11.0-0.24,,,,,"<div style=""font-size:60px;"">+</div>",,450685,,482,html-keyboard-response,,
14,long,small,True,,,,preset,0.0-11.0-1.24,Small-visSmall/20_79.jpg,c,Big-visBig/19_17.jpg,364,"
            <img src=""Small-visSmall/20_79.jpg"" style=""margin-right: 50px""> 
            <img src=""Big-visBig/19_17.jpg"" style=""margin-left: 50px"">
            ",,451049,,483,html-keyboard-response,congruent,
14,long,,,,,,,0.0-11.0-2.24,,,,,,,451985,,484,html-keyboard-response,,
14,long,,,,,,,0.0-11.0-0.25,,,,,"<div style=""font-size:60px;"">+</div>",,452686,,485,html-keyboard-response,,
14,long,small,True,,,,preset,0.0-11.0-1.25,Small-visSmall/28_47.jpg,c,Big-visBig/27_18.jpg,485,"
            <img src=""Small-visSmall/28_47.jpg"" style=""margin-right: 50px""> 
            <img src=""Big-visBig/27_18.jpg"" style=""margin-left: 50px"">
            ",,453173,,486,html-keyboard-response,congruent,
14,long,,,,,,,0.0-11.0-2.25,,,,,,,454074,,487,html-keyboard-response,,
14,long,,,,,,,0.0-11.0-0.26,,,,,"<div style=""font-size:60px;"">+</div>",,454775,,488,html-keyboard-response,,
14,long,small,True,,,,preset,0.0-11.0-1.26,Small-visSmall/undefined,c,Big-visBig/30_20.jpg,2800,"
            <img src=""Small-visSmall/undefined"" style=""margin-right: 50px""> 
            <img src=""Big-visBig/30_20.jpg"" style=""margin-left: 50px"">
            ",,457577,,489,html-keyboard-response,congruent,
14,long,,,,,,,0.0-11.0-2.26,,,,,,,458478,,490,html-keyboard-response,,
14,long,,,,,,,0.0-11.0-0.27,,,,,"<div style=""font-size:60px;"">+</div>",,459179,,491,html-keyboard-response,,
14,long,small,True,,,,preset,0.0-11.0-1.27,Big-visBig/11_40.jpg,m,Small-visSmall/11_71.jpg,2079,"
            <img src=""Big-visBig/11_40.jpg"" style=""margin-right: 50px""> 
            <img src=""Small-visSmall/11_71.jpg"" style=""margin-left: 50px"">
            ",,461260,,492,html-keyboard-response,congruent,
14,long,,,,,,,0.0-11.0-2.27,,,,,,,462162,,493,html-keyboard-response,,
14,long,,,,,,,0.0-11.0-0.28,,,,,"<div style=""font-size:60px;"">+</div>",,462862,,494,html-keyboard-response,,
14,long,small,True,,,,preset,0.0-11.0-1.28,Small-visSmall/03_57.jpg,c,Big-visBig/03_36.jpg,715,"
            <img src=""Small-visSmall/03_57.jpg"" style=""margin-right: 50px""> 
            <img src=""Big-visBig/03_36.jpg"" style=""margin-left: 50px"">
            ",,463578,,495,html-keyboard-response,congruent,
14,long,,,,,,,0.0-11.0-2.28,,,,,,,464479,,496,html-keyboard-response,,
14,long,,,,,,,0.0-11.0-0.29,,,,,"<div style=""font-size:60px;"">+</div>",,465181,,497,html-keyboard-response,,
14,long,small,True,,,,preset,0.0-11.0-1.29,Big-visSmall/28_12.jpg,c,Small-visBig/29_69.jpg,598,"
            <img src=""Big-visSmall/28_12.jpg"" style=""margin-right: 50px""> 
            <img src=""Small-visBig/29_69.jpg"" style=""margin-left: 50px"">
            ",,465780,,498,html-keyboard-response,incongruent,
14,long,,,,,,,0.0-11.0-2.29,,,,,,,466681,,499,html-keyboard-response,,
14,long,,,,,,,0.0-11.0-0.30,,,,,"<div style=""font-size:60px;"">+</div>",,467382,,500,html-keyboard-response,,
14,long,small,True,,,,preset,0.0-11.0-1.30,Big-visBig/28_12.jpg,m,Small-visSmall/29_69.jpg,662,"
            <img src=""Big-visBig/28_12.jpg"" style=""margin-right: 50px""> 
            <img src=""Small-visSmall/29_69.jpg"" style=""margin-left: 50px"">
            ",,468046,,501,html-keyboard-response,congruent,
14,long,,,,,,,0.0-11.0-2.30,,,,,,,468947,,502,html-keyboard-response,,
14,long,,,,,,,0.0-11.0-0.31,,,,,"<div style=""font-size:60px;"">+</div>",,469648,,503,html-keyboard-response,,
14,long,small,True,,,,preset,0.0-11.0-1.31,Big-visSmall/12_13.jpg,c,Small-visBig/12_58.jpg,538,"
            <img src=""Big-visSmall/12_13.jpg"" style=""margin-right: 50px""> 
            <img src=""Small-visBig/12_58.jpg"" style=""margin-left: 50px"">
            ",,470188,,504,html-keyboard-response,incongruent,
14,long,,,,,,,0.0-11.0-2.31,,,,,,,471089,,505,html-keyboard-response,,
14,long,,,,,,,0.0-11.0-0.32,,,,,"<div style=""font-size:60px;"">+</div>",,471790,,506,html-keyboard-response,,
14,long,small,True,,,,preset,0.0-11.0-1.32,Small-visBig/21_52.jpg,m,Big-visSmall/20_38.jpg,636,"
            <img src=""Small-visBig/21_52.jpg"" style=""margin-right: 50px""> 
            <img src=""Big-visSmall/20_38.jpg"" style=""margin-left: 50px"">
            ",,472428,,507,html-keyboard-response,incongruent,
14,long,,,,,,,0.0-11.0-2.32,,,,,,,473329,,508,html-keyboard-response,,
14,long,,,,,,,0.0-11.0-0.33,,,,,"<div style=""font-size:60px;"">+</div>",,474030,,509,html-keyboard-response,,
14,long,small,False,,,,preset,0.0-11.0-1.33,Big-visBig/05_25.jpg,c,Small-visSmall/05_54.jpg,509,"
            <img src=""Big-visBig/05_25.jpg"" style=""margin-right: 50px""> 
            <img src=""Small-visSmall/05_54.jpg"" style=""margin-left: 50px"">
            ",,474539,,510,html-keyboard-response,congruent,
14,long,,,,,,,0.0-11.0-2.33,,,,,"<div style=""font-size:60px; color:#FF0000""><p>Incorrect!</p></div>",,480043,,511,html-keyboard-response,,
14,long,,,,,,,0.0-11.0-0.34,,,,,"<div style=""font-size:60px;"">+</div>",,480744,,512,html-keyboard-response,,
14,long,small,True,,,,preset,0.0-11.0-1.34,Small-visSmall/04_48.jpg,c,Big-visBig/04_05.jpg,630,"
            <img src=""Small-visSmall/04_48.jpg"" style=""margin-right: 50px""> 
            <img src=""Big-visBig/04_05.jpg"" style=""margin-left: 50px"">
            ",,481374,,513,html-keyboard-response,congruent,
14,long,,,,,,,0.0-11.0-2.34,,,,,,,482275,,514,html-keyboard-response,,
14,long,,,,,,,0.0-11.0-0.35,,,,,"<div style=""font-size:60px;"">+</div>",,482976,,515,html-keyboard-response,,
14,long,small,True,,,,preset,0.0-11.0-1.35,Big-visSmall/03_36.jpg,c,Small-visBig/03_57.jpg,648,"
            <img src=""Big-visSmall/03_36.jpg"" style=""margin-right: 50px""> 
            <img src=""Small-visBig/03_57.jpg"" style=""margin-left: 50px"">
            ",,483625,,516,html-keyboard-response,incongruent,
14,long,,,,,,,0.0-11.0-2.35,,,,,,,484525,,517,html-keyboard-response,,
14,long,,,,,,,0.0-11.0-0.36,,,,,"<div style=""font-size:60px;"">+</div>",,485227,,518,html-keyboard-response,,
14,long,small,True,,,,preset,0.0-11.0-1.36,Big-visSmall/18_23.jpg,c,Small-visBig/19_41.jpg,463,"
            <img src=""Big-visSmall/18_23.jpg"" style=""margin-right: 50px""> 
            <img src=""Small-visBig/19_41.jpg"" style=""margin-left: 50px"">
            ",,485691,,519,html-keyboard-response,incongruent,
14,long,,,,,,,0.0-11.0-2.36,,,,,,,486592,,520,html-keyboard-response,,
14,long,,,,,,,0.0-11.0-0.37,,,,,"<div style=""font-size:60px;"">+</div>",,487294,,521,html-keyboard-response,,
14,long,small,True,,,,preset,0.0-11.0-1.37,Small-visSmall/14_67.jpg,c,Big-visBig/14_34.jpg,847,"
            <img src=""Small-visSmall/14_67.jpg"" style=""margin-right: 50px""> 
            <img src=""Big-visBig/14_34.jpg"" style=""margin-left: 50px"">
            ",,488143,,522,html-keyboard-response,congruent,
14,long,,,,,,,0.0-11.0-2.37,,,,,,,489043,,523,html-keyboard-response,,
14,long,,,,,,,0.0-11.0-0.38,,,,,"<div style=""font-size:60px;"">+</div>",,489745,,524,html-keyboard-response,,
14,long,small,True,,,,preset,0.0-11.0-1.38,Big-visSmall/10_09.jpg,c,Small-visBig/10_59.jpg,510,"
            <img src=""Big-visSmall/10_09.jpg"" style=""margin-right: 50px""> 
            <img src=""Small-visBig/10_59.jpg"" style=""margin-left: 50px"">
            ",,490255,,525,html-keyboard-response,incongruent,
14,long,,,,,,,0.0-11.0-2.38,,,,,,,491156,,526,html-keyboard-response,,
14,long,,,,,,,0.0-11.0-0.39,,,,,"<div style=""font-size:60px;"">+</div>",,491858,,527,html-keyboard-response,,
14,long,small,True,,,,preset,0.0-11.0-1.39,Small-visSmall/22_65.jpg,c,Big-visBig/21_31.jpg,596,"
            <img src=""Small-visSmall/22_65.jpg"" style=""margin-right: 50px""> 
            <img src=""Big-visBig/21_31.jpg"" style=""margin-left: 50px"">
            ",,492456,,528,html-keyboard-response,congruent,
14,long,,,,,,,0.0-11.0-2.39,,,,,,,493357,,529,html-keyboard-response,,
14,long,,,,,,,0.0-11.0-0.40,,,,,"<div style=""font-size:60px;"">+</div>",,494059,,530,html-keyboard-response,,
14,long,small,True,,,,preset,0.0-11.0-1.40,Big-visBig/12_13.jpg,m,Small-visSmall/12_58.jpg,618,"
            <img src=""Big-visBig/12_13.jpg"" style=""margin-right: 50px""> 
            <img src=""Small-visSmall/12_58.jpg"" style=""margin-left: 50px"">
            ",,494677,,531,html-keyboard-response,congruent,
14,long,,,,,,,0.0-11.0-2.40,,,,,,,495578,,532,html-keyboard-response,,
14,long,,,,,,,0.0-11.0-0.41,,,,,"<div style=""font-size:60px;"">+</div>",,496280,,533,html-keyboard-response,,
14,long,small,True,,,,preset,0.0-11.0-1.41,Small-visSmall/07_51.jpg,c,Big-visBig/07_33.jpg,596,"
            <img src=""Small-visSmall/07_51.jpg"" style=""margin-right: 50px""> 
            <img src=""Big-visBig/07_33.jpg"" style=""margin-left: 50px"">
            ",,496877,,534,html-keyboard-response,congruent,
14,long,,,,,,,0.0-11.0-2.41,,,,,,,497778,,535,html-keyboard-response,,
14,long,,,,,,,0.0-11.0-0.42,,,,,"<div style=""font-size:60px;"">+</div>",,498480,,536,html-keyboard-response,,
14,long,small,True,,,,preset,0.0-11.0-1.42,Small-visBig/15_72.jpg,m,Big-visSmall/14_34.jpg,581,"
            <img src=""Small-visBig/15_72.jpg"" style=""margin-right: 50px""> 
            <img src=""Big-visSmall/14_34.jpg"" style=""margin-left: 50px"">
            ",,499061,,537,html-keyboard-response,incongruent,
14,long,,,,,,,0.0-11.0-2.42,,,,,,,499962,,538,html-keyboard-response,,
14,long,,,,,,,0.0-11.0-0.43,,,,,"<div style=""font-size:60px;"">+</div>",,500663,,539,html-keyboard-response,,
14,long,small,True,,,,preset,0.0-11.0-1.43,Big-visBig/26_32.jpg,m,Small-visSmall/27_63.jpg,583,"
            <img src=""Big-visBig/26_32.jpg"" style=""margin-right: 50px""> 
            <img src=""Small-visSmall/27_63.jpg"" style=""margin-left: 50px"">
            ",,501247,,540,html-keyboard-response,congruent,
14,long,,,,,,,0.0-11.0-2.43,,,,,,,502149,,541,html-keyboard-response,,
14,long,,,,,,,0.0-11.0-0.44,,,,,"<div style=""font-size:60px;"">+</div>",,502850,,542,html-keyboard-response,,
14,long,small,True,,,,preset,0.0-11.0-1.44,Big-visSmall/20_38.jpg,c,Small-visBig/21_52.jpg,474,"
            <img src=""Big-visSmall/20_38.jpg"" style=""margin-right: 50px""> 
            <img src=""Small-visBig/21_52.jpg"" style=""margin-left: 50px"">
            ",,503325,,543,html-keyboard-response,incongruent,
14,long,,,,,,,0.0-11.0-2.44,,,,,,,504226,,544,html-keyboard-response,,
14,long,,,,,,,0.0-11.0-0.45,,,,,"<div style=""font-size:60px;"">+</div>",,504927,,545,html-keyboard-response,,
14,long,small,True,,,,preset,0.0-11.0-1.45,Big-visBig/14_34.jpg,m,Small-visSmall/15_72.jpg,806,"
            <img src=""Big-visBig/14_34.jpg"" style=""margin-right: 50px""> 
            <img src=""Small-visSmall/15_72.jpg"" style=""margin-left: 50px"">
            ",,505734,,546,html-keyboard-response,congruent,
14,long,,,,,,,0.0-11.0-2.45,,,,,,,506635,,547,html-keyboard-response,,
14,long,,,,,,,0.0-11.0-0.46,,,,,"<div style=""font-size:60px;"">+</div>",,507336,,548,html-keyboard-response,,
14,long,small,True,,,,preset,0.0-11.0-1.46,Small-visBig/28_47.jpg,m,Big-visSmall/27_18.jpg,661,"
            <img src=""Small-visBig/28_47.jpg"" style=""margin-right: 50px""> 
            <img src=""Big-visSmall/27_18.jpg"" style=""margin-left: 50px"">
            ",,507997,,549,html-keyboard-response,incongruent,
14,long,,,,,,,0.0-11.0-2.46,,,,,,,508898,,550,html-keyboard-response,,
14,long,,,,,,,0.0-11.0-0.47,,,,,"<div style=""font-size:60px;"">+</div>",,509600,,551,html-keyboard-response,,
14,long,small,True,,,,preset,0.0-11.0-1.47,Big-visSmall/23_16.jpg,c,Small-visBig/24_61.jpg,570,"
            <img src=""Big-visSmall/23_16.jpg"" style=""margin-right: 50px""> 
            <img src=""Small-visBig/24_61.jpg"" style=""margin-left: 50px"">
            ",,510170,,552,html-keyboard-response,incongruent,
14,long,,,,,,,0.0-11.0-2.47,,,,,,,511070,,553,html-keyboard-response,,
14,long,,,,,,,0.0-11.0-0.48,,,,,"<div style=""font-size:60px;"">+</div>",,511772,,554,html-keyboard-response,,
14,long,small,True,,,,preset,0.0-11.0-1.48,Small-visSmall/10_59.jpg,c,Big-visBig/10_09.jpg,1134,"
            <img src=""Small-visSmall/10_59.jpg"" style=""margin-right: 50px""> 
            <img src=""Big-visBig/10_09.jpg"" style=""margin-left: 50px"">
            ",,512908,,555,html-keyboard-response,congruent,
14,long,,,,,,,0.0-11.0-2.48,,,,,,,513810,,556,html-keyboard-response,,
14,long,,,,,,,0.0-11.0-0.49,,,,,"<div style=""font-size:60px;"">+</div>",,514510,,557,html-keyboard-response,,
14,long,small,True,,,,preset,0.0-11.0-1.49,Big-visSmall/25_10.jpg,c,Small-visBig/26_42.jpg,661,"
            <img src=""Big-visSmall/25_10.jpg"" style=""margin-right: 50px""> 
            <img src=""Small-visBig/26_42.jpg"" style=""margin-left: 50px"">
            ",,515171,,558,html-keyboard-response,incongruent,
14,long,,,,,,,0.0-11.0-2.49,,,,,,,516072,,559,html-keyboard-response,,
14,long,,,,,,,0.0-11.0-0.50,,,,,"<div style=""font-size:60px;"">+</div>",,516774,,560,html-keyboard-response,,
14,long,small,True,,,,preset,0.0-11.0-1.50,Small-visSmall/06_43.jpg,c,Big-visBig/06_02.jpg,469,"
            <img src=""Small-visSmall/06_43.jpg"" style=""margin-right: 50px""> 
            <img src=""Big-visBig/06_02.jpg"" style=""margin-left: 50px"">
            ",,517244,,561,html-keyboard-response,congruent,
14,long,,,,,,,0.0-11.0-2.50,,,,,,,518145,,562,html-keyboard-response,,
14,long,,,,,,,0.0-11.0-0.51,,,,,"<div style=""font-size:60px;"">+</div>",,518846,,563,html-keyboard-response,,
14,long,small,True,,,,preset,0.0-11.0-1.51,Big-visSmall/05_25.jpg,c,Small-visBig/05_54.jpg,448,"
            <img src=""Big-visSmall/05_25.jpg"" style=""margin-right: 50px""> 
            <img src=""Small-visBig/05_54.jpg"" style=""margin-left: 50px"">
            ",,519296,,564,html-keyboard-response,incongruent,
14,long,,,,,,,0.0-11.0-2.51,,,,,,,520197,,565,html-keyboard-response,,
14,long,,,,,,,0.0-11.0-0.52,,,,,"<div style=""font-size:60px;"">+</div>",,520901,,566,html-keyboard-response,,
14,long,small,True,,,,preset,0.0-11.0-1.52,Big-visSmall/07_33.jpg,c,Small-visBig/07_51.jpg,386,"
            <img src=""Big-visSmall/07_33.jpg"" style=""margin-right: 50px""> 
            <img src=""Small-visBig/07_51.jpg"" style=""margin-left: 50px"">
            ",,521287,,567,html-keyboard-response,incongruent,
14,long,,,,,,,0.0-11.0-2.52,,,,,,,522198,,568,html-keyboard-response,,
14,long,,,,,,,0.0-11.0-0.53,,,,,"<div style=""font-size:60px;"">+</div>",,522899,,569,html-keyboard-response,,
14,long,small,True,,,,preset,0.0-11.0-1.53,Big-visBig/06_02.jpg,m,Small-visSmall/06_43.jpg,520,"
            <img src=""Big-visBig/06_02.jpg"" style=""margin-right: 50px""> 
            <img src=""Small-visSmall/06_43.jpg"" style=""margin-left: 50px"">
            ",,523420,,570,html-keyboard-response,congruent,
14,long,,,,,,,0.0-11.0-2.53,,,,,,,524321,,571,html-keyboard-response,,
14,long,,,,,,,0.0-11.0-0.54,,,,,"<div style=""font-size:60px;"">+</div>",,525022,,572,html-keyboard-response,,
14,long,small,True,,,,preset,0.0-11.0-1.54,Big-visBig/07_33.jpg,m,Small-visSmall/07_51.jpg,537,"
            <img src=""Big-visBig/07_33.jpg"" style=""margin-right: 50px""> 
            <img src=""Small-visSmall/07_51.jpg"" style=""margin-left: 50px"">
            ",,525560,,573,html-keyboard-response,congruent,
14,long,,,,,,,0.0-11.0-2.54,,,,,,,526461,,574,html-keyboard-response,,
14,long,,,,,,,0.0-11.0-0.55,,,,,"<div style=""font-size:60px;"">+</div>",,527162,,575,html-keyboard-response,,
14,long,small,True,,,,preset,0.0-11.0-1.55,Small-visBig/04_48.jpg,m,Big-visSmall/04_05.jpg,446,"
            <img src=""Small-visBig/04_48.jpg"" style=""margin-right: 50px""> 
            <img src=""Big-visSmall/04_05.jpg"" style=""margin-left: 50px"">
            ",,527609,,576,html-keyboard-response,incongruent,
14,long,,,,,,,0.0-11.0-2.55,,,,,,,528510,,577,html-keyboard-response,,
14,long,,,,,,,0.0-11.0-0.56,,,,,"<div style=""font-size:60px;"">+</div>",,529211,,578,html-keyboard-response,,
14,long,small,True,,,,preset,0.0-11.0-1.56,Big-visBig/10_09.jpg,m,Small-visSmall/10_59.jpg,447,"
            <img src=""Big-visBig/10_09.jpg"" style=""margin-right: 50px""> 
            <img src=""Small-visSmall/10_59.jpg"" style=""margin-left: 50px"">
            ",,529659,,579,html-keyboard-response,congruent,
14,long,,,,,,,0.0-11.0-2.56,,,,,,,530559,,580,html-keyboard-response,,
14,long,,,,,,,0.0-11.0-0.57,,,,,"<div style=""font-size:60px;"">+</div>",,531323,,581,html-keyboard-response,,
14,long,small,True,,,,preset,0.0-11.0-1.57,Big-visBig/30_20.jpg,m,Small-visSmall/undefined,13590,"
            <img src=""Big-visBig/30_20.jpg"" style=""margin-right: 50px""> 
            <img src=""Small-visSmall/undefined"" style=""margin-left: 50px"">
            ",,544914,,582,html-keyboard-response,congruent,
14,long,,,,,,,0.0-11.0-2.57,,,,,,,545815,,583,html-keyboard-response,,
14,long,,,,,,,0.0-11.0-0.58,,,,,"<div style=""font-size:60px;"">+</div>",,546517,,584,html-keyboard-response,,
14,long,small,True,,,,preset,0.0-11.0-1.58,Big-visSmall/14_34.jpg,c,Small-visBig/14_67.jpg,956,"
            <img src=""Big-visSmall/14_34.jpg"" style=""margin-right: 50px""> 
            <img src=""Small-visBig/14_67.jpg"" style=""margin-left: 50px"">
            ",,547473,,585,html-keyboard-response,incongruent,
14,long,,,,,,,0.0-11.0-2.58,,,,,,,548374,,586,html-keyboard-response,,
14,long,,,,,,,0.0-11.0-0.59,,,,,"<div style=""font-size:60px;"">+</div>",,549075,,587,html-keyboard-response,,
14,long,small,True,,,,preset,0.0-11.0-1.59,Big-visBig/22_26.jpg,m,Small-visSmall/23_70.jpg,664,"
            <img src=""Big-visBig/22_26.jpg"" style=""margin-right: 50px""> 
            <img src=""Small-visSmall/23_70.jpg"" style=""margin-left: 50px"">
            ",,549740,,588,html-keyboard-response,congruent,
14,long,,,,,,,0.0-11.0-2.59,,,,,,,550641,,589,html-keyboard-response,,
14,long,,,,,,,0.0-11.0-0.60,,,,,"<div style=""font-size:60px;"">+</div>",,551343,,590,html-keyboard-response,,
14,long,small,True,,,,preset,0.0-11.0-1.60,Big-visBig/13_19.jpg,m,Small-visSmall/13_77.jpg,557,"
            <img src=""Big-visBig/13_19.jpg"" style=""margin-right: 50px""> 
            <img src=""Small-visSmall/13_77.jpg"" style=""margin-left: 50px"">
            ",,551901,,591,html-keyboard-response,congruent,
14,long,,,,,,,0.0-11.0-2.60,,,,,,,552802,,592,html-keyboard-response,,
14,long,,,,,,,0.0-11.0-0.61,,,,,"<div style=""font-size:60px;"">+</div>",,553503,,593,html-keyboard-response,,
14,long,small,True,,,,preset,0.0-11.0-1.61,Small-visBig/18_76.jpg,m,Big-visSmall/17_21.jpg,509,"
            <img src=""Small-visBig/18_76.jpg"" style=""margin-right: 50px""> 
            <img src=""Big-visSmall/17_21.jpg"" style=""margin-left: 50px"">
            ",,554013,,594,html-keyboard-response,incongruent,
14,long,,,,,,,0.0-11.0-2.61,,,,,,,554914,,595,html-keyboard-response,,
