workerid,is_practice,ask,type,correct,rt,left,right,response,trial_index
14,practice,big,congruent,TRUE,1603,Big-visBig/11_40.jpg,Small-visSmall/16_73.jpg,c,4
14,practice,big,incongruent,TRUE,883,Small-visBig/18_76.jpg,Big-visSmall/10_09.jpg,c,7
14,practice,big,congruent,TRUE,613,Big-visBig/19_17.jpg,Small-visSmall/10_59.jpg,c,10
14,practice,big,congruent,TRUE,775,Small-visSmall/21_52.jpg,Big-visBig/08_35.jpg,m,13
14,practice,big,incongruent,TRUE,1037,Big-visSmall/04_05.jpg,Small-visBig/27_63.jpg,m,16
14,practice,small,incongruent,TRUE,600,Big-visSmall/02_08.jpg,Small-visBig/23_70.jpg,c,20
14,practice,small,congruent,TRUE,716,Small-visSmall/05_54.jpg,Big-visBig/05_25.jpg,c,23
14,practice,small,congruent,TRUE,691,Big-visBig/28_12.jpg,Small-visSmall/26_42.jpg,m,26
14,practice,small,congruent,TRUE,693,Small-visSmall/22_65.jpg,Big-visBig/14_34.jpg,c,29
14,practice,small,incongruent,TRUE,663,Big-visSmall/11_40.jpg,Small-visBig/16_73.jpg,c,32
14,critical,big,incongruent,TRUE,1341,Small-visBig/24_61.jpg,Big-visSmall/23_16.jpg,c,37
14,critical,big,incongruent,TRUE,595,Small-visBig/21_52.jpg,Big-visSmall/20_38.jpg,c,40
14,critical,big,congruent,TRUE,575,Big-visBig/21_31.jpg,Small-visSmall/22_65.jpg,c,43
14,critical,big,incongruent,TRUE,620,Big-visSmall/09_15.jpg,Small-visBig/09_64.jpg,m,46
14,critical,big,incongruent,TRUE,525,Small-visBig/09_64.jpg,Big-visSmall/09_15.jpg,c,49
14,critical,big,congruent,TRUE,560,Small-visSmall/28_47.jpg,Big-visBig/27_18.jpg,m,52
14,critical,big,congruent,TRUE,586,Small-visSmall/23_70.jpg,Big-visBig/22_26.jpg,m,55
14,critical,big,congruent,TRUE,569,Small-visSmall/21_52.jpg,Big-visBig/20_38.jpg,m,58
14,critical,big,congruent,TRUE,561,Big-visBig/26_32.jpg,Small-visSmall/27_63.jpg,c,61
14,critical,big,congruent,TRUE,490,Big-visBig/29_03.jpg,Small-visSmall/30_50.jpg,c,64
14,critical,big,congruent,TRUE,511,Small-visSmall/12_58.jpg,Big-visBig/12_13.jpg,m,67
14,critical,big,congruent,TRUE,492,Big-visBig/18_23.jpg,Small-visSmall/19_41.jpg,c,70
14,critical,big,congruent,TRUE,518,Big-visBig/03_36.jpg,Small-visSmall/03_57.jpg,c,73
14,critical,big,congruent,TRUE,502,Small-visSmall/04_48.jpg,Big-visBig/04_05.jpg,m,76
14,critical,big,incongruent,TRUE,627,Big-visSmall/22_26.jpg,Small-visBig/23_70.jpg,m,79
14,critical,big,congruent,TRUE,593,Small-visSmall/30_50.jpg,Big-visBig/29_03.jpg,m,82
14,critical,big,incongruent,TRUE,574,Big-visSmall/02_08.jpg,Small-visBig/02_44.jpg,m,85
14,critical,big,incongruent,TRUE,1068,Big-visSmall/29_03.jpg,Small-visBig/30_50.jpg,m,88
14,critical,big,congruent,TRUE,595,Big-visBig/27_18.jpg,Small-visSmall/28_47.jpg,c,91
14,critical,big,incongruent,TRUE,557,Small-visBig/28_47.jpg,Big-visSmall/27_18.jpg,c,94
14,critical,big,congruent,TRUE,515,Small-visSmall/05_54.jpg,Big-visBig/05_25.jpg,m,97
14,critical,big,incongruent,TRUE,642,Big-visSmall/23_16.jpg,Small-visBig/24_61.jpg,m,100
14,critical,big,incongruent,TRUE,561,Small-visBig/16_73.jpg,Big-visSmall/15_29.jpg,c,103
14,critical,big,incongruent,TRUE,627,Small-visBig/08_45.jpg,Big-visSmall/08_35.jpg,c,106
14,critical,big,congruent,TRUE,544,Big-visBig/10_09.jpg,Small-visSmall/10_59.jpg,c,109
14,critical,big,incongruent,TRUE,882,Big-visSmall/03_36.jpg,Small-visBig/03_57.jpg,m,112
14,critical,big,incongruent,TRUE,543,Big-visSmall/07_33.jpg,Small-visBig/07_51.jpg,m,115
14,critical,big,congruent,TRUE,598,Small-visSmall/26_42.jpg,Big-visBig/25_10.jpg,m,118
14,critical,big,congruent,TRUE,542,Big-visBig/06_02.jpg,Small-visSmall/06_43.jpg,c,121
14,critical,big,incongruent,TRUE,615,Small-visBig/18_76.jpg,Big-visSmall/17_21.jpg,c,124
14,critical,big,incongruent,TRUE,799,Small-visBig/19_41.jpg,Big-visSmall/18_23.jpg,c,127
14,critical,big,congruent,TRUE,481,Small-visSmall/10_59.jpg,Big-visBig/10_09.jpg,m,130
14,critical,big,congruent,TRUE,473,Big-visBig/11_40.jpg,Small-visSmall/11_71.jpg,c,133
14,critical,big,congruent,TRUE,499,Big-visBig/14_34.jpg,Small-visSmall/14_67.jpg,c,136
14,critical,big,incongruent,TRUE,546,Small-visBig/22_65.jpg,Big-visSmall/21_31.jpg,c,139
14,critical,big,congruent,TRUE,461,Big-visBig/01_07.jpg,Small-visSmall/01_78.jpg,c,142
14,critical,big,incongruent,TRUE,511,Big-visSmall/19_17.jpg,Small-visBig/20_79.jpg,m,145
14,critical,big,congruent,TRUE,434,Big-visBig/20_38.jpg,Small-visSmall/21_52.jpg,c,148
14,critical,big,incongruent,TRUE,458,Big-visSmall/08_35.jpg,Small-visBig/08_45.jpg,m,151
14,critical,big,congruent,TRUE,472,Big-visBig/24_06.jpg,Small-visSmall/25_56.jpg,c,154
14,critical,big,incongruent,TRUE,526,Small-visBig/30_50.jpg,Big-visSmall/29_03.jpg,c,157
14,critical,big,congruent,TRUE,478,Big-visBig/09_15.jpg,Small-visSmall/09_64.jpg,c,160
14,critical,big,congruent,TRUE,496,Big-visBig/17_21.jpg,Small-visSmall/18_76.jpg,c,163
14,critical,big,congruent,TRUE,808,Small-visSmall/13_77.jpg,Big-visBig/13_19.jpg,m,166
14,critical,big,congruent,TRUE,574,Big-visBig/05_25.jpg,Small-visSmall/05_54.jpg,c,169
14,critical,big,incongruent,TRUE,527,Big-visSmall/18_23.jpg,Small-visBig/19_41.jpg,m,172
14,critical,big,incongruent,TRUE,579,Big-visSmall/25_10.jpg,Small-visBig/26_42.jpg,m,175
14,critical,big,congruent,TRUE,490,Small-visSmall/25_56.jpg,Big-visBig/24_06.jpg,m,178
14,critical,big,incongruent,TRUE,494,Small-visBig/15_72.jpg,Big-visSmall/14_34.jpg,c,181
14,critical,big,congruent,TRUE,438,Big-visBig/13_19.jpg,Small-visSmall/13_77.jpg,c,184
14,critical,big,congruent,TRUE,25679,Small-visSmall/undefined,Big-visBig/30_20.jpg,m,187
14,critical,big,incongruent,TRUE,794,Big-visSmall/17_21.jpg,Small-visBig/18_76.jpg,m,190
14,critical,big,incongruent,TRUE,575,Big-visSmall/04_05.jpg,Small-visBig/04_48.jpg,m,193
14,critical,big,congruent,TRUE,572,Big-visBig/04_05.jpg,Small-visSmall/04_48.jpg,c,196
14,critical,big,incongruent,TRUE,804,Small-visBig/01_78.jpg,Big-visSmall/01_07.jpg,c,199
14,critical,big,congruent,TRUE,584,Small-visSmall/24_61.jpg,Big-visBig/23_16.jpg,m,202
14,critical,big,incongruent,TRUE,563,Big-visSmall/27_18.jpg,Small-visBig/28_47.jpg,m,205
14,critical,big,congruent,TRUE,428,Small-visSmall/09_64.jpg,Big-visBig/09_15.jpg,m,208
14,critical,big,congruent,TRUE,440,Small-visSmall/07_51.jpg,Big-visBig/07_33.jpg,m,211
14,critical,big,congruent,TRUE,615,Big-visBig/14_34.jpg,Small-visSmall/15_72.jpg,c,214
14,critical,big,incongruent,TRUE,596,Small-visBig/07_51.jpg,Big-visSmall/07_33.jpg,c,217
14,critical,big,congruent,TRUE,476,Big-visBig/25_10.jpg,Small-visSmall/26_42.jpg,c,220
14,critical,big,incongruent,TRUE,484,Small-visBig/17_80.jpg,Big-visSmall/16_28.jpg,c,223
14,critical,big,congruent,TRUE,633,Big-visBig/08_35.jpg,Small-visSmall/08_45.jpg,c,226
14,critical,big,congruent,TRUE,621,Small-visSmall/22_65.jpg,Big-visBig/21_31.jpg,m,229
14,critical,big,incongruent,TRUE,495,Small-visBig/03_57.jpg,Big-visSmall/03_36.jpg,c,232
14,critical,big,congruent,TRUE,550,Small-visSmall/06_43.jpg,Big-visBig/06_02.jpg,m,235
14,critical,big,incongruent,TRUE,521,Big-visSmall/20_38.jpg,Small-visBig/21_52.jpg,m,238
14,critical,big,incongruent,TRUE,578,Small-visBig/11_71.jpg,Big-visSmall/11_40.jpg,c,241
14,critical,big,congruent,TRUE,507,Big-visBig/02_08.jpg,Small-visSmall/02_44.jpg,c,244
14,critical,big,congruent,TRUE,831,Small-visSmall/08_45.jpg,Big-visBig/08_35.jpg,m,247
14,critical,big,incongruent,TRUE,503,Big-visSmall/21_31.jpg,Small-visBig/22_65.jpg,m,250
14,critical,big,congruent,TRUE,482,Small-visSmall/17_80.jpg,Big-visBig/16_28.jpg,m,253
14,critical,big,congruent,TRUE,421,Small-visSmall/15_72.jpg,Big-visBig/14_34.jpg,m,256
14,critical,big,incongruent,TRUE,423,Small-visBig/02_44.jpg,Big-visSmall/02_08.jpg,c,259
14,critical,big,incongruent,TRUE,486,Big-visSmall/05_25.jpg,Small-visBig/05_54.jpg,m,262
14,critical,big,congruent,TRUE,369,Big-visBig/23_16.jpg,Small-visSmall/24_61.jpg,c,265
14,critical,big,incongruent,TRUE,460,Big-visSmall/15_29.jpg,Small-visBig/16_73.jpg,m,268
14,critical,big,congruent,TRUE,619,Small-visSmall/29_69.jpg,Big-visBig/28_12.jpg,m,271
14,critical,big,incongruent,TRUE,491,Big-visSmall/11_40.jpg,Small-visBig/11_71.jpg,m,274
14,critical,big,incongruent,TRUE,576,Big-visSmall/24_06.jpg,Small-visBig/25_56.jpg,m,277
14,critical,big,congruent,TRUE,511,Big-visBig/19_17.jpg,Small-visSmall/20_79.jpg,c,280
14,critical,big,incongruent,TRUE,535,Big-visSmall/28_12.jpg,Small-visBig/29_69.jpg,m,283
14,critical,big,congruent,TRUE,537,Big-visBig/15_29.jpg,Small-visSmall/16_73.jpg,c,286
14,critical,big,incongruent,TRUE,504,Small-visBig/27_63.jpg,Big-visSmall/26_32.jpg,c,289
14,critical,big,incongruent,TRUE,643,Small-visBig/05_54.jpg,Big-visSmall/05_25.jpg,c,292
14,critical,big,congruent,TRUE,737,Small-visSmall/02_44.jpg,Big-visBig/02_08.jpg,m,295
14,critical,big,congruent,TRUE,500,Small-visSmall/19_41.jpg,Big-visBig/18_23.jpg,m,298
14,critical,big,incongruent,TRUE,533,Big-visSmall/12_13.jpg,Small-visBig/12_58.jpg,m,301
14,critical,big,congruent,TRUE,35569,Big-visBig/30_20.jpg,Small-visSmall/undefined,c,304
14,critical,big,congruent,TRUE,1880,Small-visSmall/16_73.jpg,Big-visBig/15_29.jpg,m,307
14,critical,big,congruent,TRUE,906,Small-visSmall/03_57.jpg,Big-visBig/03_36.jpg,m,310
14,critical,big,incongruent,FALSE,490,Small-visBig/14_67.jpg,Big-visSmall/14_34.jpg,m,313
14,critical,big,incongruent,TRUE,11855,Big-visSmall/30_20.jpg,Small-visBig/undefined,m,316
14,critical,big,congruent,TRUE,2892,Small-visSmall/18_76.jpg,Big-visBig/17_21.jpg,m,319
14,critical,big,incongruent,TRUE,6696,Small-visBig/undefined,Big-visSmall/30_20.jpg,c,322
14,critical,big,incongruent,TRUE,876,Small-visBig/04_48.jpg,Big-visSmall/04_05.jpg,c,325
14,critical,big,incongruent,TRUE,570,Big-visSmall/10_09.jpg,Small-visBig/10_59.jpg,m,328
14,critical,big,incongruent,TRUE,584,Small-visBig/25_56.jpg,Big-visSmall/24_06.jpg,c,331
14,critical,big,congruent,TRUE,574,Big-visBig/16_28.jpg,Small-visSmall/17_80.jpg,c,334
14,critical,big,incongruent,TRUE,551,Big-visSmall/14_34.jpg,Small-visBig/15_72.jpg,m,337
14,critical,big,incongruent,TRUE,797,Big-visSmall/06_02.jpg,Small-visBig/06_43.jpg,m,340
14,critical,big,congruent,TRUE,455,Small-visSmall/11_71.jpg,Big-visBig/11_40.jpg,m,343
14,critical,big,congruent,TRUE,497,Small-visSmall/01_78.jpg,Big-visBig/01_07.jpg,m,346
14,critical,big,incongruent,TRUE,673,Small-visBig/12_58.jpg,Big-visSmall/12_13.jpg,c,349
14,critical,big,congruent,TRUE,473,Big-visBig/28_12.jpg,Small-visSmall/29_69.jpg,c,352
14,critical,big,incongruent,TRUE,553,Big-visSmall/14_34.jpg,Small-visBig/14_67.jpg,m,355
14,critical,big,congruent,TRUE,529,Big-visBig/07_33.jpg,Small-visSmall/07_51.jpg,c,358
14,critical,big,incongruent,TRUE,481,Small-visBig/10_59.jpg,Big-visSmall/10_09.jpg,c,361
14,critical,big,incongruent,TRUE,482,Small-visBig/20_79.jpg,Big-visSmall/19_17.jpg,c,364
14,critical,big,incongruent,TRUE,476,Small-visBig/06_43.jpg,Big-visSmall/06_02.jpg,c,367
14,critical,big,incongruent,TRUE,1099,Big-visSmall/13_19.jpg,Small-visBig/13_77.jpg,m,370
14,critical,big,incongruent,TRUE,661,Big-visSmall/16_28.jpg,Small-visBig/17_80.jpg,m,373
14,critical,big,congruent,TRUE,605,Small-visSmall/14_67.jpg,Big-visBig/14_34.jpg,m,376
14,critical,big,congruent,TRUE,510,Small-visSmall/27_63.jpg,Big-visBig/26_32.jpg,m,379
14,critical,big,incongruent,TRUE,477,Big-visSmall/01_07.jpg,Small-visBig/01_78.jpg,m,382
14,critical,big,incongruent,TRUE,484,Small-visBig/26_42.jpg,Big-visSmall/25_10.jpg,c,385
14,critical,big,incongruent,TRUE,433,Small-visBig/29_69.jpg,Big-visSmall/28_12.jpg,c,388
14,critical,big,incongruent,TRUE,403,Small-visBig/23_70.jpg,Big-visSmall/22_26.jpg,c,391
14,critical,big,congruent,TRUE,429,Big-visBig/22_26.jpg,Small-visSmall/23_70.jpg,c,394
14,critical,big,congruent,TRUE,507,Small-visSmall/20_79.jpg,Big-visBig/19_17.jpg,m,397
14,critical,big,incongruent,TRUE,456,Small-visBig/13_77.jpg,Big-visSmall/13_19.jpg,c,400
14,critical,big,congruent,TRUE,414,Big-visBig/12_13.jpg,Small-visSmall/12_58.jpg,c,403
14,critical,big,incongruent,TRUE,542,Big-visSmall/26_32.jpg,Small-visBig/27_63.jpg,m,406
14,critical,small,incongruent,TRUE,716,Big-visSmall/24_06.jpg,Small-visBig/25_56.jpg,c,411
14,critical,small,congruent,TRUE,553,Big-visBig/21_31.jpg,Small-visSmall/22_65.jpg,m,414
14,critical,small,incongruent,TRUE,531,Small-visBig/30_50.jpg,Big-visSmall/29_03.jpg,m,417
14,critical,small,incongruent,TRUE,488,Big-visSmall/08_35.jpg,Small-visBig/08_45.jpg,c,420
14,critical,small,congruent,TRUE,525,Big-visBig/09_15.jpg,Small-visSmall/09_64.jpg,m,423
14,critical,small,congruent,TRUE,441,Small-visSmall/30_50.jpg,Big-visBig/29_03.jpg,c,426
14,critical,small,congruent,TRUE,446,Small-visSmall/27_63.jpg,Big-visBig/26_32.jpg,c,429
14,critical,small,congruent,TRUE,449,Big-visBig/23_16.jpg,Small-visSmall/24_61.jpg,m,432
14,critical,small,congruent,TRUE,448,Big-visBig/20_38.jpg,Small-visSmall/21_52.jpg,m,435
14,critical,small,incongruent,FALSE,615,Small-visBig/19_41.jpg,Big-visSmall/18_23.jpg,c,438
14,critical,small,incongruent,TRUE,517,Big-visSmall/14_34.jpg,Small-visBig/15_72.jpg,c,441
14,critical,small,incongruent,TRUE,916,Small-visBig/26_42.jpg,Big-visSmall/25_10.jpg,m,444
14,critical,small,congruent,TRUE,498,Small-visSmall/25_56.jpg,Big-visBig/24_06.jpg,c,447
14,critical,small,incongruent,TRUE,691,Big-visSmall/21_31.jpg,Small-visBig/22_65.jpg,c,450
14,critical,small,congruent,TRUE,1094,Big-visBig/17_21.jpg,Small-visSmall/18_76.jpg,m,453
14,critical,small,congruent,TRUE,668,Big-visBig/24_06.jpg,Small-visSmall/25_56.jpg,m,456
14,critical,small,congruent,TRUE,533,Small-visSmall/17_80.jpg,Big-visBig/16_28.jpg,c,459
14,critical,small,congruent,TRUE,659,Big-visBig/02_08.jpg,Small-visSmall/02_44.jpg,m,462
14,critical,small,congruent,TRUE,466,Small-visSmall/05_54.jpg,Big-visBig/05_25.jpg,c,465
14,critical,small,incongruent,TRUE,444,Small-visBig/23_70.jpg,Big-visSmall/22_26.jpg,m,468
14,critical,small,congruent,TRUE,528,Big-visBig/16_28.jpg,Small-visSmall/17_80.jpg,m,471
14,critical,small,congruent,TRUE,495,Small-visSmall/01_78.jpg,Big-visBig/01_07.jpg,c,474
14,critical,small,congruent,TRUE,479,Small-visSmall/09_64.jpg,Big-visBig/09_15.jpg,c,477
14,critical,small,incongruent,TRUE,454,Big-visSmall/26_32.jpg,Small-visBig/27_63.jpg,c,480
14,critical,small,congruent,TRUE,364,Small-visSmall/20_79.jpg,Big-visBig/19_17.jpg,c,483
14,critical,small,congruent,TRUE,485,Small-visSmall/28_47.jpg,Big-visBig/27_18.jpg,c,486
14,critical,small,congruent,TRUE,2800,Small-visSmall/undefined,Big-visBig/30_20.jpg,c,489
14,critical,small,congruent,TRUE,2079,Big-visBig/11_40.jpg,Small-visSmall/11_71.jpg,m,492
14,critical,small,congruent,TRUE,715,Small-visSmall/03_57.jpg,Big-visBig/03_36.jpg,c,495
14,critical,small,incongruent,TRUE,598,Big-visSmall/28_12.jpg,Small-visBig/29_69.jpg,c,498
14,critical,small,congruent,TRUE,662,Big-visBig/28_12.jpg,Small-visSmall/29_69.jpg,m,501
14,critical,small,incongruent,TRUE,538,Big-visSmall/12_13.jpg,Small-visBig/12_58.jpg,c,504
14,critical,small,incongruent,TRUE,636,Small-visBig/21_52.jpg,Big-visSmall/20_38.jpg,m,507
14,critical,small,congruent,FALSE,509,Big-visBig/05_25.jpg,Small-visSmall/05_54.jpg,c,510
14,critical,small,congruent,TRUE,630,Small-visSmall/04_48.jpg,Big-visBig/04_05.jpg,c,513
14,critical,small,incongruent,TRUE,648,Big-visSmall/03_36.jpg,Small-visBig/03_57.jpg,c,516
14,critical,small,incongruent,TRUE,463,Big-visSmall/18_23.jpg,Small-visBig/19_41.jpg,c,519
14,critical,small,congruent,TRUE,847,Small-visSmall/14_67.jpg,Big-visBig/14_34.jpg,c,522
14,critical,small,incongruent,TRUE,510,Big-visSmall/10_09.jpg,Small-visBig/10_59.jpg,c,525
14,critical,small,congruent,TRUE,596,Small-visSmall/22_65.jpg,Big-visBig/21_31.jpg,c,528
14,critical,small,congruent,TRUE,618,Big-visBig/12_13.jpg,Small-visSmall/12_58.jpg,m,531
14,critical,small,congruent,TRUE,596,Small-visSmall/07_51.jpg,Big-visBig/07_33.jpg,c,534
14,critical,small,incongruent,TRUE,581,Small-visBig/15_72.jpg,Big-visSmall/14_34.jpg,m,537
14,critical,small,congruent,TRUE,583,Big-visBig/26_32.jpg,Small-visSmall/27_63.jpg,m,540
14,critical,small,incongruent,TRUE,474,Big-visSmall/20_38.jpg,Small-visBig/21_52.jpg,c,543
14,critical,small,congruent,TRUE,806,Big-visBig/14_34.jpg,Small-visSmall/15_72.jpg,m,546
14,critical,small,incongruent,TRUE,661,Small-visBig/28_47.jpg,Big-visSmall/27_18.jpg,m,549
14,critical,small,incongruent,TRUE,570,Big-visSmall/23_16.jpg,Small-visBig/24_61.jpg,c,552
14,critical,small,congruent,TRUE,1134,Small-visSmall/10_59.jpg,Big-visBig/10_09.jpg,c,555
14,critical,small,incongruent,TRUE,661,Big-visSmall/25_10.jpg,Small-visBig/26_42.jpg,c,558
14,critical,small,congruent,TRUE,469,Small-visSmall/06_43.jpg,Big-visBig/06_02.jpg,c,561
14,critical,small,incongruent,TRUE,448,Big-visSmall/05_25.jpg,Small-visBig/05_54.jpg,c,564
14,critical,small,incongruent,TRUE,386,Big-visSmall/07_33.jpg,Small-visBig/07_51.jpg,c,567
14,critical,small,congruent,TRUE,520,Big-visBig/06_02.jpg,Small-visSmall/06_43.jpg,m,570
14,critical,small,congruent,TRUE,537,Big-visBig/07_33.jpg,Small-visSmall/07_51.jpg,m,573
14,critical,small,incongruent,TRUE,446,Small-visBig/04_48.jpg,Big-visSmall/04_05.jpg,m,576
14,critical,small,congruent,TRUE,447,Big-visBig/10_09.jpg,Small-visSmall/10_59.jpg,m,579
14,critical,small,congruent,TRUE,13590,Big-visBig/30_20.jpg,Small-visSmall/undefined,m,582
14,critical,small,incongruent,TRUE,956,Big-visSmall/14_34.jpg,Small-visBig/14_67.jpg,c,585
14,critical,small,congruent,TRUE,664,Big-visBig/22_26.jpg,Small-visSmall/23_70.jpg,m,588
14,critical,small,congruent,TRUE,557,Big-visBig/13_19.jpg,Small-visSmall/13_77.jpg,m,591
14,critical,small,incongruent,TRUE,509,Small-visBig/18_76.jpg,Big-visSmall/17_21.jpg,m,594
14,critical,small,incongruent,TRUE,6469,Big-visSmall/30_20.jpg,Small-visBig/undefined,c,597
14,critical,small,congruent,TRUE,658,Small-visSmall/16_73.jpg,Big-visBig/15_29.jpg,c,600
14,critical,small,incongruent,TRUE,968,Small-visBig/02_44.jpg,Big-visSmall/02_08.jpg,m,603
14,critical,small,incongruent,TRUE,663,Small-visBig/17_80.jpg,Big-visSmall/16_28.jpg,m,606
14,critical,small,congruent,TRUE,775,Big-visBig/08_35.jpg,Small-visSmall/08_45.jpg,m,609
14,critical,small,incongruent,TRUE,556,Small-visBig/07_51.jpg,Big-visSmall/07_33.jpg,m,612
14,critical,small,incongruent,TRUE,541,Small-visBig/01_78.jpg,Big-visSmall/01_07.jpg,m,615
14,critical,small,congruent,TRUE,498,Small-visSmall/29_69.jpg,Big-visBig/28_12.jpg,c,618
14,critical,small,congruent,TRUE,458,Small-visSmall/21_52.jpg,Big-visBig/20_38.jpg,c,621
14,critical,small,incongruent,TRUE,568,Small-visBig/25_56.jpg,Big-visSmall/24_06.jpg,m,624
14,critical,small,incongruent,TRUE,581,Small-visBig/05_54.jpg,Big-visSmall/05_25.jpg,m,627
14,critical,small,incongruent,TRUE,517,Big-visSmall/06_02.jpg,Small-visBig/06_43.jpg,c,630
14,critical,small,incongruent,TRUE,525,Big-visSmall/01_07.jpg,Small-visBig/01_78.jpg,c,633
14,critical,small,incongruent,TRUE,627,Small-visBig/29_69.jpg,Big-visSmall/28_12.jpg,m,636
14,critical,small,congruent,TRUE,525,Small-visSmall/12_58.jpg,Big-visBig/12_13.jpg,c,639
14,critical,small,incongruent,TRUE,463,Small-visBig/14_67.jpg,Big-visSmall/14_34.jpg,m,642
14,critical,small,congruent,TRUE,503,Small-visSmall/19_41.jpg,Big-visBig/18_23.jpg,c,645
14,critical,small,incongruent,TRUE,395,Big-visSmall/29_03.jpg,Small-visBig/30_50.jpg,c,648
14,critical,small,congruent,TRUE,574,Big-visBig/29_03.jpg,Small-visSmall/30_50.jpg,m,651
14,critical,small,incongruent,TRUE,475,Small-visBig/20_79.jpg,Big-visSmall/19_17.jpg,m,654
14,critical,small,congruent,TRUE,631,Small-visSmall/02_44.jpg,Big-visBig/02_08.jpg,c,657
14,critical,small,congruent,TRUE,442,Big-visBig/03_36.jpg,Small-visSmall/03_57.jpg,m,660
14,critical,small,incongruent,TRUE,554,Big-visSmall/22_26.jpg,Small-visBig/23_70.jpg,c,663
14,critical,small,incongruent,TRUE,421,Small-visBig/10_59.jpg,Big-visSmall/10_09.jpg,m,666
14,critical,small,congruent,TRUE,542,Big-visBig/01_07.jpg,Small-visSmall/01_78.jpg,m,669
14,critical,small,congruent,TRUE,940,Small-visSmall/23_70.jpg,Big-visBig/22_26.jpg,c,672
14,critical,small,incongruent,TRUE,558,Small-visBig/06_43.jpg,Big-visSmall/06_02.jpg,m,675
14,critical,small,congruent,TRUE,1195,Big-visBig/27_18.jpg,Small-visSmall/28_47.jpg,m,678
14,critical,small,congruent,TRUE,561,Small-visSmall/11_71.jpg,Big-visBig/11_40.jpg,c,681
14,critical,small,incongruent,TRUE,627,Small-visBig/03_57.jpg,Big-visSmall/03_36.jpg,m,684
14,critical,small,congruent,TRUE,525,Big-visBig/19_17.jpg,Small-visSmall/20_79.jpg,m,687
14,critical,small,congruent,TRUE,559,Small-visSmall/15_72.jpg,Big-visBig/14_34.jpg,c,690
14,critical,small,incongruent,TRUE,958,Big-visSmall/04_05.jpg,Small-visBig/04_48.jpg,c,693
14,critical,small,incongruent,TRUE,571,Big-visSmall/13_19.jpg,Small-visBig/13_77.jpg,c,696
14,critical,small,incongruent,TRUE,494,Small-visBig/11_71.jpg,Big-visSmall/11_40.jpg,m,699
14,critical,small,congruent,TRUE,534,Big-visBig/14_34.jpg,Small-visSmall/14_67.jpg,m,702
14,critical,small,incongruent,TRUE,508,Big-visSmall/11_40.jpg,Small-visBig/11_71.jpg,c,705
14,critical,small,congruent,TRUE,704,Small-visSmall/24_61.jpg,Big-visBig/23_16.jpg,c,708
14,critical,small,congruent,TRUE,464,Small-visSmall/13_77.jpg,Big-visBig/13_19.jpg,c,711
14,critical,small,incongruent,TRUE,788,Small-visBig/24_61.jpg,Big-visSmall/23_16.jpg,m,714
14,critical,small,incongruent,TRUE,473,Big-visSmall/16_28.jpg,Small-visBig/17_80.jpg,c,717
14,critical,small,incongruent,TRUE,523,Big-visSmall/15_29.jpg,Small-visBig/16_73.jpg,c,720
14,critical,small,incongruent,TRUE,439,Big-visSmall/09_15.jpg,Small-visBig/09_64.jpg,c,723
14,critical,small,incongruent,TRUE,516,Small-visBig/13_77.jpg,Big-visSmall/13_19.jpg,m,726
14,critical,small,congruent,TRUE,512,Big-visBig/25_10.jpg,Small-visSmall/26_42.jpg,m,729
14,critical,small,congruent,TRUE,537,Big-visBig/04_05.jpg,Small-visSmall/04_48.jpg,m,732
14,critical,small,incongruent,FALSE,6453,Small-visBig/undefined,Big-visSmall/30_20.jpg,c,735
14,critical,small,incongruent,TRUE,670,Small-visBig/09_64.jpg,Big-visSmall/09_15.jpg,m,738
14,critical,small,incongruent,TRUE,593,Big-visSmall/27_18.jpg,Small-visBig/28_47.jpg,c,741
14,critical,small,incongruent,TRUE,556,Big-visSmall/19_17.jpg,Small-visBig/20_79.jpg,c,744
14,critical,small,incongruent,TRUE,637,Small-visBig/08_45.jpg,Big-visSmall/08_35.jpg,m,747
14,critical,small,incongruent,TRUE,550,Small-visBig/27_63.jpg,Big-visSmall/26_32.jpg,m,750
14,critical,small,congruent,TRUE,403,Big-visBig/18_23.jpg,Small-visSmall/19_41.jpg,m,753
14,critical,small,congruent,TRUE,450,Small-visSmall/26_42.jpg,Big-visBig/25_10.jpg,c,756
14,critical,small,incongruent,TRUE,498,Small-visBig/22_65.jpg,Big-visSmall/21_31.jpg,m,759
14,critical,small,incongruent,TRUE,404,Big-visSmall/17_21.jpg,Small-visBig/18_76.jpg,c,762
14,critical,small,congruent,TRUE,528,Small-visSmall/08_45.jpg,Big-visBig/08_35.jpg,c,765
14,critical,small,congruent,TRUE,498,Small-visSmall/18_76.jpg,Big-visBig/17_21.jpg,c,768
14,critical,small,incongruent,TRUE,542,Small-visBig/12_58.jpg,Big-visSmall/12_13.jpg,m,771
14,critical,small,incongruent,FALSE,555,Small-visBig/16_73.jpg,Big-visSmall/15_29.jpg,c,774
14,critical,small,incongruent,TRUE,604,Big-visSmall/02_08.jpg,Small-visBig/02_44.jpg,c,777
14,critical,small,congruent,TRUE,476,Big-visBig/15_29.jpg,Small-visSmall/16_73.jpg,m,780
14,critical,big,congruent,TRUE,895,Small-visSmall/08_45.jpg,Big-visBig/29_03.jpg,m,785
14,critical,big,congruent,TRUE,621,Big-visBig/14_34.jpg,Small-visSmall/20_79.jpg,c,788
14,critical,big,incongruent,TRUE,1272,Small-visBig/undefined,Big-visSmall/13_19.jpg,c,791
14,critical,big,incongruent,TRUE,1148,Big-visSmall/01_07.jpg,Small-visBig/15_72.jpg,m,794
14,critical,big,congruent,TRUE,541,Small-visSmall/16_73.jpg,Big-visBig/11_40.jpg,m,797
14,critical,big,congruent,TRUE,644,Small-visSmall/21_52.jpg,Big-visBig/08_35.jpg,m,800
14,critical,big,incongruent,TRUE,938,Small-visBig/08_45.jpg,Big-visSmall/29_03.jpg,c,803
14,critical,big,incongruent,TRUE,491,Small-visBig/27_63.jpg,Big-visSmall/04_05.jpg,c,806
14,critical,big,congruent,TRUE,449,Small-visSmall/09_64.jpg,Big-visBig/15_29.jpg,m,809
14,critical,big,incongruent,TRUE,642,Big-visSmall/07_33.jpg,Small-visBig/30_50.jpg,m,812
14,critical,big,congruent,TRUE,574,Small-visSmall/26_42.jpg,Big-visBig/28_12.jpg,m,815
14,critical,big,congruent,TRUE,556,Small-visSmall/02_44.jpg,Big-visBig/25_10.jpg,m,818
14,critical,big,congruent,TRUE,470,Big-visBig/25_10.jpg,Small-visSmall/02_44.jpg,c,821
14,critical,big,congruent,TRUE,1054,Big-visBig/17_21.jpg,Small-visSmall/03_57.jpg,c,824
14,critical,big,congruent,TRUE,574,Small-visSmall/07_51.jpg,Big-visBig/30_20.jpg,m,827
14,critical,big,incongruent,TRUE,574,Big-visSmall/23_16.jpg,Small-visBig/12_58.jpg,m,830
14,critical,big,incongruent,TRUE,488,Small-visBig/05_54.jpg,Big-visSmall/05_25.jpg,c,833
14,critical,big,incongruent,TRUE,469,Small-visBig/15_72.jpg,Big-visSmall/01_07.jpg,c,836
14,critical,big,incongruent,TRUE,454,Big-visSmall/29_03.jpg,Small-visBig/08_45.jpg,m,839
14,critical,big,incongruent,TRUE,473,Small-visBig/12_58.jpg,Big-visSmall/23_16.jpg,c,842
14,critical,big,incongruent,TRUE,521,Big-visSmall/10_09.jpg,Small-visBig/18_76.jpg,m,845
14,critical,big,incongruent,TRUE,477,Small-visBig/01_78.jpg,Big-visSmall/24_06.jpg,c,848
14,critical,big,congruent,TRUE,703,Big-visBig/13_19.jpg,Small-visSmall/undefined,c,851
14,critical,big,incongruent,TRUE,893,Small-visBig/21_52.jpg,Big-visSmall/08_35.jpg,c,854
14,critical,big,incongruent,TRUE,578,Small-visBig/22_65.jpg,Big-visSmall/14_34.jpg,c,857
14,critical,big,congruent,TRUE,528,Small-visSmall/05_54.jpg,Big-visBig/05_25.jpg,m,860
14,critical,big,congruent,TRUE,390,Big-visBig/11_40.jpg,Small-visSmall/16_73.jpg,c,863
14,critical,big,incongruent,FALSE,723,Big-visSmall/13_19.jpg,Small-visBig/undefined,c,866
14,critical,big,incongruent,TRUE,619,Small-visBig/10_59.jpg,Big-visSmall/19_17.jpg,c,869
14,critical,big,congruent,TRUE,801,Big-visBig/29_03.jpg,Small-visSmall/08_45.jpg,c,872
14,critical,big,incongruent,TRUE,579,Big-visSmall/16_28.jpg,Small-visBig/19_41.jpg,m,875
14,critical,big,congruent,TRUE,498,Small-visSmall/01_78.jpg,Big-visBig/24_06.jpg,m,878
14,critical,big,congruent,FALSE,799,Big-visBig/02_08.jpg,Small-visSmall/23_70.jpg,m,881
14,critical,big,incongruent,TRUE,610,Big-visSmall/12_13.jpg,Small-visBig/14_67.jpg,m,884
14,critical,big,congruent,TRUE,450,Small-visSmall/30_50.jpg,Big-visBig/07_33.jpg,m,887
14,critical,big,congruent,TRUE,499,Big-visBig/01_07.jpg,Small-visSmall/15_72.jpg,c,890
14,critical,big,congruent,TRUE,523,Small-visSmall/15_72.jpg,Big-visBig/01_07.jpg,m,893
14,critical,big,congruent,TRUE,426,Big-visBig/16_28.jpg,Small-visSmall/19_41.jpg,c,896
14,critical,big,incongruent,TRUE,437,Small-visBig/02_44.jpg,Big-visSmall/25_10.jpg,c,899
14,critical,big,incongruent,TRUE,469,Big-visSmall/22_26.jpg,Small-visBig/28_47.jpg,m,902
14,critical,big,congruent,TRUE,419,Big-visBig/10_09.jpg,Small-visSmall/18_76.jpg,c,905
14,critical,big,congruent,TRUE,422,Small-visSmall/27_63.jpg,Big-visBig/04_05.jpg,m,908
14,critical,big,incongruent,FALSE,374,Big-visSmall/14_34.jpg,Small-visBig/20_79.jpg,c,911
14,critical,big,incongruent,TRUE,520,Big-visSmall/21_31.jpg,Small-visBig/11_71.jpg,m,914
14,critical,big,incongruent,TRUE,666,Big-visSmall/19_17.jpg,Small-visBig/10_59.jpg,m,917
14,critical,big,congruent,TRUE,480,Small-visSmall/29_69.jpg,Big-visBig/18_23.jpg,m,920
14,critical,big,incongruent,TRUE,427,Big-visSmall/02_08.jpg,Small-visBig/23_70.jpg,m,923
14,critical,big,congruent,TRUE,460,Small-visSmall/12_58.jpg,Big-visBig/23_16.jpg,m,926
14,critical,big,congruent,TRUE,572,Big-visBig/14_34.jpg,Small-visSmall/22_65.jpg,c,929
14,critical,big,congruent,TRUE,433,Small-visSmall/28_47.jpg,Big-visBig/22_26.jpg,m,932
14,critical,big,congruent,TRUE,441,Big-visBig/30_20.jpg,Small-visSmall/07_51.jpg,c,935
14,critical,big,congruent,TRUE,440,Small-visSmall/14_67.jpg,Big-visBig/12_13.jpg,m,938
14,critical,big,incongruent,TRUE,507,Big-visSmall/09_15.jpg,Small-visBig/06_43.jpg,m,941
14,critical,big,incongruent,TRUE,465,Big-visSmall/08_35.jpg,Small-visBig/21_52.jpg,m,944
14,critical,big,incongruent,TRUE,677,Small-visBig/17_80.jpg,Big-visSmall/20_38.jpg,c,947
14,critical,big,congruent,TRUE,457,Big-visBig/18_23.jpg,Small-visSmall/29_69.jpg,c,950
14,critical,big,incongruent,TRUE,488,Big-visSmall/05_25.jpg,Small-visBig/05_54.jpg,m,953
14,critical,big,incongruent,TRUE,523,Small-visBig/06_43.jpg,Big-visSmall/09_15.jpg,c,956
14,critical,big,incongruent,TRUE,645,Big-visSmall/11_40.jpg,Small-visBig/16_73.jpg,m,959
14,critical,big,congruent,TRUE,441,Big-visBig/22_26.jpg,Small-visSmall/28_47.jpg,c,962
14,critical,big,congruent,TRUE,490,Small-visSmall/10_59.jpg,Big-visBig/19_17.jpg,m,965
14,critical,big,congruent,TRUE,459,Small-visSmall/18_76.jpg,Big-visBig/10_09.jpg,m,968
14,critical,big,incongruent,TRUE,489,Big-visSmall/24_06.jpg,Small-visBig/01_78.jpg,m,971
14,critical,big,congruent,TRUE,484,Small-visSmall/22_65.jpg,Big-visBig/14_34.jpg,m,974
14,critical,big,incongruent,TRUE,452,Small-visBig/20_79.jpg,Big-visSmall/14_34.jpg,c,977
14,critical,big,incongruent,TRUE,544,Small-visBig/07_51.jpg,Big-visSmall/30_20.jpg,c,980
14,critical,big,incongruent,TRUE,691,Big-visSmall/18_23.jpg,Small-visBig/29_69.jpg,m,983
14,critical,big,incongruent,TRUE,726,Big-visSmall/15_29.jpg,Small-visBig/09_64.jpg,m,986
14,critical,big,congruent,TRUE,712,Big-visBig/24_06.jpg,Small-visSmall/01_78.jpg,c,989
14,critical,big,incongruent,TRUE,637,Small-visBig/13_77.jpg,Big-visSmall/03_36.jpg,c,992
14,critical,big,incongruent,TRUE,583,Small-visBig/16_73.jpg,Big-visSmall/11_40.jpg,c,995
14,critical,big,incongruent,TRUE,654,Small-visBig/28_47.jpg,Big-visSmall/22_26.jpg,c,998
14,critical,big,congruent,TRUE,501,Small-visSmall/03_57.jpg,Big-visBig/17_21.jpg,m,1001
14,critical,big,incongruent,TRUE,532,Big-visSmall/17_21.jpg,Small-visBig/03_57.jpg,m,1004
14,critical,big,incongruent,TRUE,489,Small-visBig/11_71.jpg,Big-visSmall/21_31.jpg,c,1007
14,critical,big,incongruent,TRUE,476,Big-visSmall/26_32.jpg,Small-visBig/04_48.jpg,m,1010
14,critical,big,congruent,TRUE,539,Big-visBig/27_18.jpg,Small-visSmall/25_56.jpg,c,1013
14,critical,big,congruent,TRUE,507,Big-visBig/04_05.jpg,Small-visSmall/27_63.jpg,c,1016
14,critical,big,congruent,TRUE,593,Big-visBig/20_38.jpg,Small-visSmall/17_80.jpg,c,1019
14,critical,big,congruent,TRUE,492,Big-visBig/08_35.jpg,Small-visSmall/21_52.jpg,c,1022
14,critical,big,incongruent,TRUE,633,Big-visSmall/27_18.jpg,Small-visBig/25_56.jpg,m,1025
14,critical,big,congruent,TRUE,477,Big-visBig/15_29.jpg,Small-visSmall/09_64.jpg,c,1028
14,critical,big,congruent,TRUE,858,Small-visSmall/19_41.jpg,Big-visBig/16_28.jpg,m,1031
14,critical,big,congruent,TRUE,532,Small-visSmall/11_71.jpg,Big-visBig/21_31.jpg,m,1034
14,critical,big,congruent,TRUE,525,Small-visSmall/25_56.jpg,Big-visBig/27_18.jpg,m,1037
14,critical,big,congruent,TRUE,434,Big-visBig/23_16.jpg,Small-visSmall/12_58.jpg,c,1040
14,critical,big,congruent,TRUE,438,Small-visSmall/04_48.jpg,Big-visBig/26_32.jpg,m,1043
14,critical,big,congruent,TRUE,444,Big-visBig/03_36.jpg,Small-visSmall/13_77.jpg,c,1046
14,critical,big,incongruent,TRUE,708,Big-visSmall/28_12.jpg,Small-visBig/26_42.jpg,m,1049
14,critical,big,congruent,TRUE,464,Big-visBig/19_17.jpg,Small-visSmall/10_59.jpg,c,1052
14,critical,big,incongruent,FALSE,451,Small-visBig/26_42.jpg,Big-visSmall/28_12.jpg,m,1055
14,critical,big,congruent,TRUE,678,Small-visSmall/20_79.jpg,Big-visBig/14_34.jpg,m,1058
14,critical,big,incongruent,TRUE,607,Small-visBig/24_61.jpg,Big-visSmall/06_02.jpg,c,1061
14,critical,big,congruent,TRUE,514,Big-visBig/12_13.jpg,Small-visSmall/14_67.jpg,c,1064
14,critical,big,congruent,TRUE,500,Small-visSmall/06_43.jpg,Big-visBig/09_15.jpg,m,1067
14,critical,big,incongruent,TRUE,528,Small-visBig/09_64.jpg,Big-visSmall/15_29.jpg,c,1070
14,critical,big,incongruent,TRUE,451,Small-visBig/23_70.jpg,Big-visSmall/02_08.jpg,c,1073
14,critical,big,congruent,TRUE,502,Big-visBig/06_02.jpg,Small-visSmall/24_61.jpg,c,1076
14,critical,big,congruent,TRUE,408,Big-visBig/05_25.jpg,Small-visSmall/05_54.jpg,c,1079
14,critical,big,incongruent,TRUE,532,Big-visSmall/20_38.jpg,Small-visBig/17_80.jpg,m,1082
14,critical,big,incongruent,TRUE,626,Big-visSmall/04_05.jpg,Small-visBig/27_63.jpg,m,1085
14,critical,big,congruent,TRUE,451,Big-visBig/28_12.jpg,Small-visSmall/26_42.jpg,c,1088
14,critical,big,incongruent,TRUE,495,Big-visSmall/06_02.jpg,Small-visBig/24_61.jpg,m,1091
14,critical,big,congruent,TRUE,411,Big-visBig/07_33.jpg,Small-visSmall/30_50.jpg,c,1094
14,critical,big,congruent,TRUE,439,Big-visBig/26_32.jpg,Small-visSmall/04_48.jpg,c,1097
14,critical,big,incongruent,TRUE,533,Small-visBig/30_50.jpg,Big-visSmall/07_33.jpg,c,1100
14,critical,big,incongruent,FALSE,410,Big-visSmall/25_10.jpg,Small-visBig/02_44.jpg,c,1103
14,critical,big,incongruent,TRUE,525,Big-visSmall/30_20.jpg,Small-visBig/07_51.jpg,m,1106
14,critical,big,incongruent,TRUE,535,Small-visBig/25_56.jpg,Big-visSmall/27_18.jpg,c,1109
14,critical,big,incongruent,TRUE,456,Big-visSmall/14_34.jpg,Small-visBig/22_65.jpg,m,1112
14,critical,big,incongruent,TRUE,812,Small-visBig/14_67.jpg,Big-visSmall/12_13.jpg,c,1115
14,critical,big,incongruent,TRUE,606,Small-visBig/18_76.jpg,Big-visSmall/10_09.jpg,c,1118
14,critical,big,congruent,TRUE,449,Big-visBig/09_15.jpg,Small-visSmall/06_43.jpg,c,1121
14,critical,big,congruent,TRUE,522,Small-visSmall/23_70.jpg,Big-visBig/02_08.jpg,m,1124
14,critical,big,incongruent,TRUE,662,Small-visBig/29_69.jpg,Big-visSmall/18_23.jpg,c,1127
14,critical,big,incongruent,TRUE,577,Small-visBig/03_57.jpg,Big-visSmall/17_21.jpg,c,1130
14,critical,big,congruent,TRUE,478,Small-visSmall/17_80.jpg,Big-visBig/20_38.jpg,m,1133
14,critical,big,incongruent,TRUE,487,Big-visSmall/03_36.jpg,Small-visBig/13_77.jpg,m,1136
14,critical,big,congruent,TRUE,413,Small-visSmall/24_61.jpg,Big-visBig/06_02.jpg,m,1139
14,critical,big,congruent,TRUE,492,Big-visBig/21_31.jpg,Small-visSmall/11_71.jpg,c,1142
14,critical,big,incongruent,TRUE,512,Small-visBig/04_48.jpg,Big-visSmall/26_32.jpg,c,1145
14,critical,big,congruent,FALSE,1325,Small-visSmall/undefined,Big-visBig/13_19.jpg,c,1148
14,critical,big,congruent,TRUE,559,Small-visSmall/13_77.jpg,Big-visBig/03_36.jpg,m,1151
14,critical,big,incongruent,TRUE,713,Small-visBig/19_41.jpg,Big-visSmall/16_28.jpg,c,1154
14,critical,small,incongruent,TRUE,694,Big-visSmall/04_05.jpg,Small-visBig/27_63.jpg,c,1159
14,critical,small,congruent,TRUE,541,Big-visBig/18_23.jpg,Small-visSmall/29_69.jpg,m,1162
14,critical,small,congruent,TRUE,575,Small-visSmall/22_65.jpg,Big-visBig/14_34.jpg,c,1165
14,critical,small,incongruent,TRUE,513,Big-visSmall/03_36.jpg,Small-visBig/13_77.jpg,c,1168
14,critical,small,incongruent,TRUE,593,Small-visBig/11_71.jpg,Big-visSmall/21_31.jpg,m,1171
14,critical,small,congruent,TRUE,603,Big-visBig/14_34.jpg,Small-visSmall/20_79.jpg,m,1174
14,critical,small,congruent,TRUE,478,Small-visSmall/21_52.jpg,Big-visBig/08_35.jpg,c,1177
14,critical,small,incongruent,TRUE,457,Big-visSmall/30_20.jpg,Small-visBig/07_51.jpg,c,1180
14,critical,small,congruent,TRUE,489,Small-visSmall/03_57.jpg,Big-visBig/17_21.jpg,c,1183
14,critical,small,congruent,TRUE,519,Big-visBig/28_12.jpg,Small-visSmall/26_42.jpg,m,1186
14,critical,small,incongruent,TRUE,491,Big-visSmall/29_03.jpg,Small-visBig/08_45.jpg,c,1189
14,critical,small,incongruent,TRUE,712,Big-visSmall/06_02.jpg,Small-visBig/24_61.jpg,c,1192
14,critical,small,congruent,TRUE,497,Small-visSmall/11_71.jpg,Big-visBig/21_31.jpg,c,1195
14,critical,small,incongruent,TRUE,599,Small-visBig/02_44.jpg,Big-visSmall/25_10.jpg,m,1198
14,critical,small,congruent,TRUE,573,Small-visSmall/19_41.jpg,Big-visBig/16_28.jpg,c,1201
14,critical,small,incongruent,TRUE,487,Small-visBig/23_70.jpg,Big-visSmall/02_08.jpg,m,1204
14,critical,small,incongruent,TRUE,767,Small-visBig/26_42.jpg,Big-visSmall/28_12.jpg,m,1207
14,critical,small,congruent,TRUE,1107,Small-visSmall/23_70.jpg,Big-visBig/02_08.jpg,c,1210
14,critical,small,incongruent,TRUE,496,Small-visBig/22_65.jpg,Big-visSmall/14_34.jpg,m,1213
14,critical,small,congruent,TRUE,589,Big-visBig/16_28.jpg,Small-visSmall/19_41.jpg,m,1216
14,critical,small,incongruent,TRUE,653,Small-visBig/21_52.jpg,Big-visSmall/08_35.jpg,m,1219
14,critical,small,incongruent,TRUE,633,Big-visSmall/02_08.jpg,Small-visBig/23_70.jpg,c,1222
14,critical,small,congruent,TRUE,474,Small-visSmall/24_61.jpg,Big-visBig/06_02.jpg,c,1225
14,critical,small,congruent,TRUE,523,Big-visBig/19_17.jpg,Small-visSmall/10_59.jpg,m,1228
14,critical,small,incongruent,TRUE,566,Big-visSmall/09_15.jpg,Small-visBig/06_43.jpg,c,1231
14,critical,small,incongruent,TRUE,712,Big-visSmall/11_40.jpg,Small-visBig/16_73.jpg,c,1234
14,critical,small,congruent,TRUE,576,Big-visBig/27_18.jpg,Small-visSmall/25_56.jpg,m,1237
14,critical,small,congruent,TRUE,875,Big-visBig/30_20.jpg,Small-visSmall/07_51.jpg,m,1240
14,critical,small,congruent,TRUE,3291,Big-visBig/29_03.jpg,Small-visSmall/08_45.jpg,m,1243
14,critical,small,congruent,TRUE,3051,Small-visSmall/27_63.jpg,Big-visBig/04_05.jpg,c,1246
14,critical,small,incongruent,TRUE,720,Big-visSmall/19_17.jpg,Small-visBig/10_59.jpg,c,1249
14,critical,small,incongruent,TRUE,572,Big-visSmall/14_34.jpg,Small-visBig/20_79.jpg,c,1252
14,critical,small,congruent,TRUE,559,Small-visSmall/10_59.jpg,Big-visBig/19_17.jpg,c,1255
14,critical,small,incongruent,TRUE,736,Small-visBig/19_41.jpg,Big-visSmall/16_28.jpg,m,1258
14,critical,small,congruent,TRUE,545,Big-visBig/05_25.jpg,Small-visSmall/05_54.jpg,m,1261
14,critical,small,incongruent,TRUE,462,Big-visSmall/17_21.jpg,Small-visBig/03_57.jpg,c,1264
14,critical,small,congruent,TRUE,469,Small-visSmall/12_58.jpg,Big-visBig/23_16.jpg,c,1267
14,critical,small,congruent,TRUE,489,Big-visBig/22_26.jpg,Small-visSmall/28_47.jpg,m,1270
14,critical,small,incongruent,TRUE,546,Small-visBig/08_45.jpg,Big-visSmall/29_03.jpg,m,1273
14,critical,small,incongruent,TRUE,539,Big-visSmall/15_29.jpg,Small-visBig/09_64.jpg,c,1276
14,critical,small,incongruent,TRUE,521,Big-visSmall/12_13.jpg,Small-visBig/14_67.jpg,c,1279
14,critical,small,incongruent,TRUE,928,Small-visBig/undefined,Big-visSmall/13_19.jpg,m,1282
14,critical,small,incongruent,TRUE,883,Small-visBig/30_50.jpg,Big-visSmall/07_33.jpg,m,1285
14,critical,small,incongruent,TRUE,613,Big-visSmall/05_25.jpg,Small-visBig/05_54.jpg,c,1288
14,critical,small,congruent,FALSE,837,Big-visBig/13_19.jpg,Small-visSmall/undefined,c,1291
14,critical,small,incongruent,TRUE,649,Small-visBig/12_58.jpg,Big-visSmall/23_16.jpg,m,1294
14,critical,small,congruent,TRUE,601,Small-visSmall/07_51.jpg,Big-visBig/30_20.jpg,c,1297
14,critical,small,incongruent,TRUE,550,Small-visBig/04_48.jpg,Big-visSmall/26_32.jpg,m,1300
14,critical,small,congruent,TRUE,919,Small-visSmall/28_47.jpg,Big-visBig/22_26.jpg,c,1303
14,critical,small,congruent,TRUE,446,Small-visSmall/08_45.jpg,Big-visBig/29_03.jpg,c,1306
14,critical,small,incongruent,TRUE,493,Big-visSmall/07_33.jpg,Small-visBig/30_50.jpg,c,1309
14,critical,small,congruent,TRUE,515,Small-visSmall/01_78.jpg,Big-visBig/24_06.jpg,c,1312
14,critical,small,incongruent,TRUE,688,Big-visSmall/24_06.jpg,Small-visBig/01_78.jpg,c,1315
14,critical,small,congruent,TRUE,606,Big-visBig/14_34.jpg,Small-visSmall/22_65.jpg,m,1318
14,critical,small,incongruent,TRUE,523,Big-visSmall/21_31.jpg,Small-visBig/11_71.jpg,c,1321
14,critical,small,congruent,TRUE,440,Small-visSmall/09_64.jpg,Big-visBig/15_29.jpg,c,1324
14,critical,small,congruent,TRUE,429,Small-visSmall/13_77.jpg,Big-visBig/03_36.jpg,c,1327
14,critical,small,congruent,TRUE,385,Small-visSmall/06_43.jpg,Big-visBig/09_15.jpg,c,1330
14,critical,small,congruent,TRUE,352,Small-visSmall/16_73.jpg,Big-visBig/11_40.jpg,c,1333
14,critical,small,congruent,TRUE,481,Big-visBig/12_13.jpg,Small-visSmall/14_67.jpg,m,1336
14,critical,small,congruent,TRUE,413,Small-visSmall/30_50.jpg,Big-visBig/07_33.jpg,c,1339
14,critical,small,congruent,TRUE,493,Big-visBig/17_21.jpg,Small-visSmall/03_57.jpg,m,1342
14,critical,small,congruent,TRUE,540,Big-visBig/21_31.jpg,Small-visSmall/11_71.jpg,m,1345
14,critical,small,incongruent,TRUE,430,Big-visSmall/27_18.jpg,Small-visBig/25_56.jpg,c,1348
14,critical,small,congruent,TRUE,418,Big-visBig/20_38.jpg,Small-visSmall/17_80.jpg,m,1351
14,critical,small,incongruent,TRUE,670,Small-visBig/14_67.jpg,Big-visSmall/12_13.jpg,m,1354
14,critical,small,incongruent,TRUE,426,Big-visSmall/08_35.jpg,Small-visBig/21_52.jpg,c,1357
14,critical,small,incongruent,TRUE,448,Small-visBig/17_80.jpg,Big-visSmall/20_38.jpg,m,1360
14,critical,small,congruent,TRUE,696,Small-visSmall/15_72.jpg,Big-visBig/01_07.jpg,c,1363
14,critical,small,incongruent,TRUE,382,Big-visSmall/20_38.jpg,Small-visBig/17_80.jpg,c,1366
14,critical,small,incongruent,TRUE,355,Big-visSmall/25_10.jpg,Small-visBig/02_44.jpg,c,1369
14,critical,small,incongruent,FALSE,361,Small-visBig/05_54.jpg,Big-visSmall/05_25.jpg,c,1372
14,critical,small,incongruent,TRUE,620,Big-visSmall/22_26.jpg,Small-visBig/28_47.jpg,c,1375
14,critical,small,incongruent,FALSE,530,Big-visSmall/18_23.jpg,Small-visBig/29_69.jpg,m,1378
14,critical,small,incongruent,TRUE,894,Big-visSmall/13_19.jpg,Small-visBig/undefined,c,1381
14,critical,small,congruent,TRUE,603,Big-visBig/07_33.jpg,Small-visSmall/30_50.jpg,m,1384
14,critical,small,incongruent,TRUE,584,Small-visBig/20_79.jpg,Big-visSmall/14_34.jpg,m,1387
14,critical,small,incongruent,TRUE,524,Big-visSmall/23_16.jpg,Small-visBig/12_58.jpg,c,1390
14,critical,small,congruent,TRUE,585,Big-visBig/26_32.jpg,Small-visSmall/04_48.jpg,m,1393
14,critical,small,incongruent,TRUE,547,Big-visSmall/14_34.jpg,Small-visBig/22_65.jpg,c,1396
14,critical,small,incongruent,TRUE,452,Small-visBig/24_61.jpg,Big-visSmall/06_02.jpg,m,1399
14,critical,small,congruent,TRUE,534,Big-visBig/06_02.jpg,Small-visSmall/24_61.jpg,m,1402
14,critical,small,incongruent,TRUE,681,Small-visBig/03_57.jpg,Big-visSmall/17_21.jpg,m,1405
14,critical,small,congruent,TRUE,1194,Big-visBig/08_35.jpg,Small-visSmall/21_52.jpg,m,1408
14,critical,small,incongruent,TRUE,652,Small-visBig/01_78.jpg,Big-visSmall/24_06.jpg,m,1411
14,critical,small,congruent,TRUE,1094,Small-visSmall/05_54.jpg,Big-visBig/05_25.jpg,c,1414
14,critical,small,congruent,TRUE,1188,Small-visSmall/18_76.jpg,Big-visBig/10_09.jpg,c,1417
14,critical,small,incongruent,TRUE,474,Small-visBig/15_72.jpg,Big-visSmall/01_07.jpg,m,1420
14,critical,small,incongruent,TRUE,880,Small-visBig/29_69.jpg,Big-visSmall/18_23.jpg,m,1423
14,critical,small,congruent,TRUE,537,Big-visBig/24_06.jpg,Small-visSmall/01_78.jpg,m,1426
14,critical,small,congruent,TRUE,537,Small-visSmall/29_69.jpg,Big-visBig/18_23.jpg,c,1429
14,critical,small,congruent,TRUE,541,Big-visBig/03_36.jpg,Small-visSmall/13_77.jpg,m,1432
14,critical,small,congruent,TRUE,587,Big-visBig/25_10.jpg,Small-visSmall/02_44.jpg,m,1435
14,critical,small,congruent,TRUE,564,Big-visBig/11_40.jpg,Small-visSmall/16_73.jpg,m,1438
14,critical,small,incongruent,TRUE,589,Small-visBig/07_51.jpg,Big-visSmall/30_20.jpg,m,1441
14,critical,small,congruent,TRUE,1041,Small-visSmall/20_79.jpg,Big-visBig/14_34.jpg,c,1444
14,critical,small,incongruent,TRUE,998,Big-visSmall/28_12.jpg,Small-visBig/26_42.jpg,c,1447
14,critical,small,congruent,TRUE,540,Big-visBig/01_07.jpg,Small-visSmall/15_72.jpg,m,1450
14,critical,small,incongruent,TRUE,1093,Small-visBig/18_76.jpg,Big-visSmall/10_09.jpg,m,1453
14,critical,small,incongruent,TRUE,688,Big-visSmall/26_32.jpg,Small-visBig/04_48.jpg,c,1456
14,critical,small,incongruent,TRUE,652,Small-visBig/16_73.jpg,Big-visSmall/11_40.jpg,m,1459
14,critical,small,incongruent,TRUE,829,Small-visBig/09_64.jpg,Big-visSmall/15_29.jpg,m,1462
14,critical,small,congruent,TRUE,475,Big-visBig/10_09.jpg,Small-visSmall/18_76.jpg,m,1465
14,critical,small,incongruent,TRUE,552,Big-visSmall/01_07.jpg,Small-visBig/15_72.jpg,c,1468
14,critical,small,incongruent,TRUE,533,Small-visBig/28_47.jpg,Big-visSmall/22_26.jpg,m,1471
14,critical,small,congruent,TRUE,572,Big-visBig/23_16.jpg,Small-visSmall/12_58.jpg,m,1474
14,critical,small,incongruent,TRUE,527,Small-visBig/10_59.jpg,Big-visSmall/19_17.jpg,m,1477
14,critical,small,congruent,TRUE,508,Big-visBig/04_05.jpg,Small-visSmall/27_63.jpg,m,1480
14,critical,small,incongruent,TRUE,428,Small-visBig/06_43.jpg,Big-visSmall/09_15.jpg,m,1483
14,critical,small,congruent,TRUE,457,Small-visSmall/14_67.jpg,Big-visBig/12_13.jpg,c,1486
14,critical,small,congruent,TRUE,393,Small-visSmall/02_44.jpg,Big-visBig/25_10.jpg,c,1489
14,critical,small,congruent,FALSE,645,Small-visSmall/undefined,Big-visBig/13_19.jpg,m,1492
14,critical,small,incongruent,TRUE,548,Big-visSmall/10_09.jpg,Small-visBig/18_76.jpg,c,1495
14,critical,small,congruent,TRUE,524,Small-visSmall/17_80.jpg,Big-visBig/20_38.jpg,c,1498
14,critical,small,congruent,TRUE,496,Big-visBig/09_15.jpg,Small-visSmall/06_43.jpg,m,1501
14,critical,small,incongruent,FALSE,429,Small-visBig/27_63.jpg,Big-visSmall/04_05.jpg,c,1504
14,critical,small,congruent,TRUE,944,Big-visBig/02_08.jpg,Small-visSmall/23_70.jpg,m,1507
14,critical,small,congruent,TRUE,452,Small-visSmall/26_42.jpg,Big-visBig/28_12.jpg,c,1510
14,critical,small,congruent,TRUE,549,Small-visSmall/04_48.jpg,Big-visBig/26_32.jpg,c,1513
14,critical,small,incongruent,TRUE,454,Small-visBig/13_77.jpg,Big-visSmall/03_36.jpg,m,1516
14,critical,small,congruent,TRUE,433,Small-visSmall/25_56.jpg,Big-visBig/27_18.jpg,c,1519
14,critical,small,incongruent,TRUE,421,Small-visBig/25_56.jpg,Big-visSmall/27_18.jpg,m,1522
14,critical,small,incongruent,TRUE,521,Big-visSmall/16_28.jpg,Small-visBig/19_41.jpg,c,1525
14,critical,small,congruent,TRUE,426,Big-visBig/15_29.jpg,Small-visSmall/09_64.jpg,m,1528
46,practice,big,congruent,TRUE,1172,Small-visSmall/14_67.jpg,Big-visBig/15_29.jpg,m,4
46,practice,big,congruent,FALSE,1889,Small-visSmall/08_45.jpg,Big-visBig/14_34.jpg,c,7
46,practice,big,incongruent,FALSE,1475,Small-visBig/05_54.jpg,Big-visSmall/16_28.jpg,m,10
46,practice,big,incongruent,TRUE,752,Big-visSmall/14_34.jpg,Small-visBig/08_45.jpg,m,13
46,practice,big,congruent,TRUE,744,Small-visSmall/28_47.jpg,Big-visBig/01_07.jpg,m,16
46,practice,small,congruent,FALSE,558,Big-visBig/12_13.jpg,Small-visSmall/02_44.jpg,c,20
46,practice,small,congruent,TRUE,508,Big-visBig/05_25.jpg,Small-visSmall/18_76.jpg,m,23
46,practice,small,incongruent,TRUE,944,Big-visSmall/13_19.jpg,Small-visBig/01_78.jpg,c,26
46,practice,small,congruent,TRUE,644,Small-visSmall/28_47.jpg,Big-visBig/01_07.jpg,c,29
46,practice,small,incongruent,TRUE,675,Big-visSmall/05_25.jpg,Small-visBig/18_76.jpg,c,32
46,critical,big,incongruent,TRUE,640,Big-visSmall/29_03.jpg,Small-visBig/29_69.jpg,m,37
46,critical,big,congruent,TRUE,1066,Small-visSmall/21_52.jpg,Big-visBig/21_31.jpg,m,40
46,critical,big,incongruent,TRUE,584,Big-visSmall/19_17.jpg,Small-visBig/19_41.jpg,m,43
46,critical,big,congruent,TRUE,654,Small-visSmall/04_48.jpg,Big-visBig/04_05.jpg,m,46
46,critical,big,congruent,TRUE,644,Big-visBig/07_33.jpg,Small-visSmall/07_51.jpg,c,49
46,critical,big,incongruent,TRUE,774,Small-visBig/28_47.jpg,Big-visSmall/28_12.jpg,c,52
46,critical,big,congruent,TRUE,679,Big-visBig/10_09.jpg,Small-visSmall/10_59.jpg,c,55
46,critical,big,incongruent,TRUE,605,Small-visBig/12_58.jpg,Big-visSmall/12_13.jpg,c,58
46,critical,big,congruent,TRUE,686,Small-visSmall/29_69.jpg,Big-visBig/29_03.jpg,m,61
46,critical,big,congruent,TRUE,874,Big-visBig/20_38.jpg,Small-visSmall/20_79.jpg,c,64
46,critical,big,congruent,TRUE,573,Small-visSmall/16_73.jpg,Big-visBig/16_28.jpg,m,67
46,critical,big,congruent,TRUE,732,Small-visSmall/13_77.jpg,Big-visBig/13_19.jpg,m,70
46,critical,big,congruent,TRUE,629,Big-visBig/04_05.jpg,Small-visSmall/04_48.jpg,c,73
46,critical,big,congruent,TRUE,528,Big-visBig/24_06.jpg,Small-visSmall/24_61.jpg,c,76
46,critical,big,incongruent,TRUE,586,Small-visBig/03_57.jpg,Big-visSmall/03_36.jpg,c,79
46,critical,big,incongruent,TRUE,707,Small-visBig/10_59.jpg,Big-visSmall/10_09.jpg,c,82
46,critical,big,incongruent,TRUE,570,Big-visSmall/15_29.jpg,Small-visBig/15_72.jpg,m,85
46,critical,big,incongruent,TRUE,702,Big-visSmall/16_28.jpg,Small-visBig/16_73.jpg,m,88
46,critical,big,congruent,TRUE,509,Big-visBig/11_40.jpg,Small-visSmall/11_71.jpg,c,91
46,critical,big,congruent,TRUE,550,Small-visSmall/28_47.jpg,Big-visBig/28_12.jpg,m,94
46,critical,big,congruent,TRUE,559,Small-visSmall/06_43.jpg,Big-visBig/06_02.jpg,m,97
46,critical,big,incongruent,TRUE,560,Big-visSmall/05_25.jpg,Small-visBig/05_54.jpg,m,100
46,critical,big,incongruent,TRUE,542,Small-visBig/26_42.jpg,Big-visSmall/26_32.jpg,c,103
46,critical,big,congruent,TRUE,560,Small-visSmall/08_45.jpg,Big-visBig/08_35.jpg,m,106
46,critical,big,congruent,TRUE,749,Small-visSmall/15_72.jpg,Big-visBig/15_29.jpg,m,109
46,critical,big,incongruent,TRUE,621,Big-visSmall/28_12.jpg,Small-visBig/28_47.jpg,m,112
46,critical,big,incongruent,TRUE,582,Small-visBig/22_65.jpg,Big-visSmall/22_26.jpg,c,115
46,critical,big,congruent,TRUE,566,Small-visSmall/27_63.jpg,Big-visBig/27_18.jpg,m,118
46,critical,big,incongruent,TRUE,562,Small-visBig/19_41.jpg,Big-visSmall/19_17.jpg,c,121
46,critical,big,congruent,TRUE,726,Big-visBig/05_25.jpg,Small-visSmall/05_54.jpg,c,124
46,critical,big,congruent,TRUE,482,Big-visBig/28_12.jpg,Small-visSmall/28_47.jpg,c,127
46,critical,big,congruent,TRUE,812,Big-visBig/03_36.jpg,Small-visSmall/03_57.jpg,c,130
46,critical,big,incongruent,TRUE,768,Small-visBig/02_44.jpg,Big-visSmall/02_08.jpg,c,133
46,critical,big,incongruent,TRUE,571,Small-visBig/21_52.jpg,Big-visSmall/21_31.jpg,c,136
46,critical,big,incongruent,TRUE,584,Big-visSmall/08_35.jpg,Small-visBig/08_45.jpg,m,139
46,critical,big,incongruent,TRUE,642,Small-visBig/20_79.jpg,Big-visSmall/20_38.jpg,c,142
46,critical,big,congruent,TRUE,631,Small-visSmall/10_59.jpg,Big-visBig/10_09.jpg,m,145
46,critical,big,congruent,TRUE,856,Small-visSmall/25_56.jpg,Big-visBig/25_10.jpg,m,148
46,critical,big,incongruent,TRUE,621,Big-visSmall/11_40.jpg,Small-visBig/11_71.jpg,m,151
46,critical,big,incongruent,TRUE,567,Big-visSmall/17_21.jpg,Small-visBig/17_80.jpg,m,154
46,critical,big,congruent,TRUE,504,Big-visBig/27_18.jpg,Small-visSmall/27_63.jpg,c,157
46,critical,big,incongruent,TRUE,626,Big-visSmall/22_26.jpg,Small-visBig/22_65.jpg,m,160
46,critical,big,incongruent,TRUE,599,Big-visSmall/04_05.jpg,Small-visBig/04_48.jpg,m,163
46,critical,big,congruent,TRUE,502,Big-visBig/21_31.jpg,Small-visSmall/21_52.jpg,c,166
46,critical,big,congruent,TRUE,588,Big-visBig/25_10.jpg,Small-visSmall/25_56.jpg,c,169
46,critical,big,incongruent,TRUE,588,Small-visBig/06_43.jpg,Big-visSmall/06_02.jpg,c,172
46,critical,big,congruent,TRUE,641,Small-visSmall/05_54.jpg,Big-visBig/05_25.jpg,m,175
46,critical,big,incongruent,TRUE,547,Small-visBig/27_63.jpg,Big-visSmall/27_18.jpg,c,178
46,critical,big,incongruent,TRUE,511,Small-visBig/15_72.jpg,Big-visSmall/15_29.jpg,c,181
46,critical,big,congruent,TRUE,568,Small-visSmall/24_61.jpg,Big-visBig/24_06.jpg,m,184
46,critical,big,congruent,TRUE,659,Small-visSmall/22_65.jpg,Big-visBig/22_26.jpg,m,187
46,critical,big,incongruent,TRUE,682,Big-visSmall/30_20.jpg,Small-visBig/30_50.jpg,m,190
46,critical,big,incongruent,TRUE,760,Big-visSmall/24_06.jpg,Small-visBig/24_61.jpg,m,193
46,critical,big,incongruent,TRUE,680,Small-visBig/01_78.jpg,Big-visSmall/01_07.jpg,c,196
46,critical,big,congruent,TRUE,670,Big-visBig/15_29.jpg,Small-visSmall/15_72.jpg,c,199
46,critical,big,congruent,TRUE,531,Big-visBig/19_17.jpg,Small-visSmall/19_41.jpg,c,202
46,critical,big,incongruent,TRUE,685,Big-visSmall/02_08.jpg,Small-visBig/02_44.jpg,m,205
46,critical,big,incongruent,TRUE,695,Big-visSmall/25_10.jpg,Small-visBig/25_56.jpg,m,208
46,critical,big,incongruent,TRUE,581,Small-visBig/05_54.jpg,Big-visSmall/05_25.jpg,c,211
46,critical,big,incongruent,TRUE,565,Small-visBig/04_48.jpg,Big-visSmall/04_05.jpg,c,214
46,critical,big,incongruent,TRUE,577,Small-visBig/18_76.jpg,Big-visSmall/18_23.jpg,c,217
46,critical,big,congruent,TRUE,565,Big-visBig/09_15.jpg,Small-visSmall/09_64.jpg,c,220
46,critical,big,incongruent,TRUE,535,Small-visBig/23_70.jpg,Big-visSmall/23_16.jpg,c,223
46,critical,big,incongruent,TRUE,453,Big-visSmall/03_36.jpg,Small-visBig/03_57.jpg,m,226
46,critical,big,incongruent,TRUE,894,Small-visBig/29_69.jpg,Big-visSmall/29_03.jpg,c,229
46,critical,big,incongruent,TRUE,808,Small-visBig/14_67.jpg,Big-visSmall/14_34.jpg,c,232
46,critical,big,congruent,TRUE,570,Small-visSmall/17_80.jpg,Big-visBig/17_21.jpg,m,235
46,critical,big,congruent,TRUE,566,Big-visBig/17_21.jpg,Small-visSmall/17_80.jpg,c,238
46,critical,big,congruent,TRUE,656,Big-visBig/02_08.jpg,Small-visSmall/02_44.jpg,c,241
46,critical,big,congruent,TRUE,619,Big-visBig/06_02.jpg,Small-visSmall/06_43.jpg,c,244
46,critical,big,congruent,TRUE,635,Big-visBig/23_16.jpg,Small-visSmall/23_70.jpg,c,247
46,critical,big,incongruent,TRUE,814,Big-visSmall/27_18.jpg,Small-visBig/27_63.jpg,m,250
46,critical,big,incongruent,TRUE,801,Small-visBig/13_77.jpg,Big-visSmall/13_19.jpg,c,253
46,critical,big,congruent,TRUE,696,Small-visSmall/01_78.jpg,Big-visBig/01_07.jpg,m,256
46,critical,big,incongruent,TRUE,1143,Small-visBig/07_51.jpg,Big-visSmall/07_33.jpg,c,259
46,critical,big,incongruent,TRUE,719,Big-visSmall/23_16.jpg,Small-visBig/23_70.jpg,m,262
46,critical,big,incongruent,TRUE,1205,Small-visBig/30_50.jpg,Big-visSmall/30_20.jpg,c,265
46,critical,big,congruent,TRUE,1330,Small-visSmall/03_57.jpg,Big-visBig/03_36.jpg,m,268
46,critical,big,congruent,TRUE,1034,Small-visSmall/12_58.jpg,Big-visBig/12_13.jpg,m,271
46,critical,big,congruent,TRUE,780,Big-visBig/18_23.jpg,Small-visSmall/18_76.jpg,c,274
46,critical,big,incongruent,TRUE,925,Big-visSmall/14_34.jpg,Small-visBig/14_67.jpg,m,277
46,critical,big,congruent,TRUE,802,Big-visBig/13_19.jpg,Small-visSmall/13_77.jpg,c,280
46,critical,big,congruent,TRUE,787,Big-visBig/14_34.jpg,Small-visSmall/14_67.jpg,c,283
46,critical,big,congruent,TRUE,582,Big-visBig/12_13.jpg,Small-visSmall/12_58.jpg,c,286
46,critical,big,incongruent,TRUE,674,Small-visBig/11_71.jpg,Big-visSmall/11_40.jpg,c,289
46,critical,big,incongruent,TRUE,604,Big-visSmall/13_19.jpg,Small-visBig/13_77.jpg,m,292
46,critical,big,incongruent,TRUE,556,Big-visSmall/20_38.jpg,Small-visBig/20_79.jpg,m,295
46,critical,big,incongruent,TRUE,858,Small-visBig/24_61.jpg,Big-visSmall/24_06.jpg,c,298
46,critical,big,incongruent,TRUE,575,Big-visSmall/10_09.jpg,Small-visBig/10_59.jpg,m,301
46,critical,big,incongruent,TRUE,641,Big-visSmall/06_02.jpg,Small-visBig/06_43.jpg,m,304
46,critical,big,incongruent,TRUE,524,Big-visSmall/12_13.jpg,Small-visBig/12_58.jpg,m,307
46,critical,big,incongruent,TRUE,1072,Small-visBig/08_45.jpg,Big-visSmall/08_35.jpg,c,310
46,critical,big,incongruent,TRUE,840,Small-visBig/17_80.jpg,Big-visSmall/17_21.jpg,c,313
46,critical,big,congruent,TRUE,1286,Small-visSmall/23_70.jpg,Big-visBig/23_16.jpg,m,316
46,critical,big,congruent,TRUE,547,Small-visSmall/09_64.jpg,Big-visBig/09_15.jpg,m,319
46,critical,big,congruent,TRUE,639,Small-visSmall/14_67.jpg,Big-visBig/14_34.jpg,m,322
46,critical,big,congruent,TRUE,652,Big-visBig/29_03.jpg,Small-visSmall/29_69.jpg,c,325
46,critical,big,incongruent,TRUE,661,Big-visSmall/21_31.jpg,Small-visBig/21_52.jpg,m,328
46,critical,big,incongruent,TRUE,666,Small-visBig/16_73.jpg,Big-visSmall/16_28.jpg,c,331
46,critical,big,congruent,TRUE,581,Big-visBig/01_07.jpg,Small-visSmall/01_78.jpg,c,334
46,critical,big,congruent,TRUE,503,Small-visSmall/30_50.jpg,Big-visBig/30_20.jpg,m,337
46,critical,big,congruent,TRUE,518,Small-visSmall/02_44.jpg,Big-visBig/02_08.jpg,m,340
46,critical,big,congruent,TRUE,478,Big-visBig/30_20.jpg,Small-visSmall/30_50.jpg,c,343
46,critical,big,incongruent,TRUE,613,Big-visSmall/26_32.jpg,Small-visBig/26_42.jpg,m,346
46,critical,big,incongruent,TRUE,918,Small-visBig/25_56.jpg,Big-visSmall/25_10.jpg,c,349
46,critical,big,incongruent,TRUE,1219,Small-visBig/09_64.jpg,Big-visSmall/09_15.jpg,c,352
46,critical,big,incongruent,TRUE,659,Big-visSmall/18_23.jpg,Small-visBig/18_76.jpg,m,355
46,critical,big,congruent,TRUE,559,Big-visBig/08_35.jpg,Small-visSmall/08_45.jpg,c,358
46,critical,big,incongruent,TRUE,630,Big-visSmall/07_33.jpg,Small-visBig/07_51.jpg,m,361
46,critical,big,congruent,TRUE,596,Small-visSmall/20_79.jpg,Big-visBig/20_38.jpg,m,364
46,critical,big,congruent,TRUE,537,Small-visSmall/11_71.jpg,Big-visBig/11_40.jpg,m,367
46,critical,big,congruent,TRUE,691,Small-visSmall/18_76.jpg,Big-visBig/18_23.jpg,m,370
46,critical,big,congruent,TRUE,592,Big-visBig/26_32.jpg,Small-visSmall/26_42.jpg,c,373
46,critical,big,congruent,TRUE,465,Small-visSmall/19_41.jpg,Big-visBig/19_17.jpg,m,376
46,critical,big,incongruent,TRUE,532,Big-visSmall/09_15.jpg,Small-visBig/09_64.jpg,m,379
46,critical,big,congruent,TRUE,545,Small-visSmall/07_51.jpg,Big-visBig/07_33.jpg,m,382
46,critical,big,congruent,TRUE,549,Big-visBig/16_28.jpg,Small-visSmall/16_73.jpg,c,385
46,critical,big,congruent,TRUE,587,Big-visBig/22_26.jpg,Small-visSmall/22_65.jpg,c,388
46,critical,big,congruent,TRUE,590,Small-visSmall/26_42.jpg,Big-visBig/26_32.jpg,m,391
46,critical,big,incongruent,TRUE,807,Big-visSmall/01_07.jpg,Small-visBig/01_78.jpg,m,394
46,critical,small,congruent,TRUE,711,Big-visBig/18_23.jpg,Small-visSmall/18_76.jpg,m,399
46,critical,small,incongruent,TRUE,640,Big-visSmall/06_02.jpg,Small-visBig/06_43.jpg,c,402
46,critical,small,congruent,TRUE,549,Small-visSmall/16_73.jpg,Big-visBig/16_28.jpg,c,405
46,critical,small,congruent,TRUE,523,Big-visBig/30_20.jpg,Small-visSmall/30_50.jpg,m,408
46,critical,small,incongruent,TRUE,479,Small-visBig/27_63.jpg,Big-visSmall/27_18.jpg,m,411
46,critical,small,congruent,TRUE,520,Small-visSmall/01_78.jpg,Big-visBig/01_07.jpg,c,414
46,critical,small,incongruent,TRUE,515,Big-visSmall/08_35.jpg,Small-visBig/08_45.jpg,c,417
46,critical,small,congruent,TRUE,484,Small-visSmall/03_57.jpg,Big-visBig/03_36.jpg,c,420
46,critical,small,incongruent,TRUE,463,Small-visBig/13_77.jpg,Big-visSmall/13_19.jpg,m,423
46,critical,small,incongruent,TRUE,416,Big-visSmall/07_33.jpg,Small-visBig/07_51.jpg,c,426
46,critical,small,congruent,TRUE,559,Small-visSmall/09_64.jpg,Big-visBig/09_15.jpg,c,429
46,critical,small,incongruent,TRUE,549,Small-visBig/17_80.jpg,Big-visSmall/17_21.jpg,m,432
46,critical,small,incongruent,TRUE,489,Big-visSmall/17_21.jpg,Small-visBig/17_80.jpg,c,435
46,critical,small,incongruent,TRUE,881,Small-visBig/03_57.jpg,Big-visSmall/03_36.jpg,m,438
46,critical,small,congruent,TRUE,638,Big-visBig/29_03.jpg,Small-visSmall/29_69.jpg,m,441
46,critical,small,congruent,TRUE,528,Big-visBig/26_32.jpg,Small-visSmall/26_42.jpg,m,444
46,critical,small,incongruent,TRUE,827,Small-visBig/04_48.jpg,Big-visSmall/04_05.jpg,m,447
46,critical,small,incongruent,TRUE,773,Big-visSmall/25_10.jpg,Small-visBig/25_56.jpg,c,450
46,critical,small,congruent,TRUE,462,Big-visBig/25_10.jpg,Small-visSmall/25_56.jpg,m,453
46,critical,small,congruent,TRUE,442,Small-visSmall/18_76.jpg,Big-visBig/18_23.jpg,c,456
46,critical,small,congruent,TRUE,544,Small-visSmall/07_51.jpg,Big-visBig/07_33.jpg,c,459
46,critical,small,incongruent,TRUE,543,Big-visSmall/21_31.jpg,Small-visBig/21_52.jpg,c,462
46,critical,small,congruent,TRUE,444,Small-visSmall/25_56.jpg,Big-visBig/25_10.jpg,c,465
46,critical,small,congruent,TRUE,477,Small-visSmall/13_77.jpg,Big-visBig/13_19.jpg,c,468
46,critical,small,congruent,TRUE,1289,Big-visBig/28_12.jpg,Small-visSmall/28_47.jpg,m,471
46,critical,small,congruent,TRUE,571,Big-visBig/12_13.jpg,Small-visSmall/12_58.jpg,m,474
46,critical,small,incongruent,TRUE,645,Big-visSmall/23_16.jpg,Small-visBig/23_70.jpg,c,477
46,critical,small,congruent,TRUE,455,Big-visBig/15_29.jpg,Small-visSmall/15_72.jpg,m,480
46,critical,small,congruent,TRUE,457,Small-visSmall/22_65.jpg,Big-visBig/22_26.jpg,c,483
46,critical,small,incongruent,TRUE,472,Big-visSmall/20_38.jpg,Small-visBig/20_79.jpg,c,486
46,critical,small,congruent,TRUE,502,Small-visSmall/28_47.jpg,Big-visBig/28_12.jpg,c,489
46,critical,small,incongruent,TRUE,343,Small-visBig/16_73.jpg,Big-visSmall/16_28.jpg,m,492
46,critical,small,congruent,TRUE,469,Small-visSmall/17_80.jpg,Big-visBig/17_21.jpg,c,495
46,critical,small,congruent,TRUE,415,Small-visSmall/26_42.jpg,Big-visBig/26_32.jpg,c,498
46,critical,small,incongruent,TRUE,449,Big-visSmall/04_05.jpg,Small-visBig/04_48.jpg,c,501
46,critical,small,congruent,TRUE,587,Small-visSmall/23_70.jpg,Big-visBig/23_16.jpg,c,504
46,critical,small,incongruent,TRUE,549,Big-visSmall/13_19.jpg,Small-visBig/13_77.jpg,c,507
46,critical,small,congruent,TRUE,530,Small-visSmall/04_48.jpg,Big-visBig/04_05.jpg,c,510
46,critical,small,incongruent,TRUE,611,Big-visSmall/10_09.jpg,Small-visBig/10_59.jpg,c,513
46,critical,small,congruent,TRUE,444,Small-visSmall/20_79.jpg,Big-visBig/20_38.jpg,c,516
46,critical,small,congruent,TRUE,653,Small-visSmall/21_52.jpg,Big-visBig/21_31.jpg,c,519
46,critical,small,incongruent,TRUE,777,Big-visSmall/27_18.jpg,Small-visBig/27_63.jpg,c,522
46,critical,small,congruent,TRUE,520,Big-visBig/04_05.jpg,Small-visSmall/04_48.jpg,m,525
46,critical,small,incongruent,TRUE,537,Small-visBig/28_47.jpg,Big-visSmall/28_12.jpg,m,528
46,critical,small,incongruent,TRUE,575,Big-visSmall/03_36.jpg,Small-visBig/03_57.jpg,c,531
46,critical,small,incongruent,TRUE,1246,Small-visBig/29_69.jpg,Big-visSmall/29_03.jpg,m,534
46,critical,small,incongruent,TRUE,600,Big-visSmall/16_28.jpg,Small-visBig/16_73.jpg,c,537
46,critical,small,congruent,TRUE,540,Small-visSmall/27_63.jpg,Big-visBig/27_18.jpg,c,540
46,critical,small,incongruent,TRUE,563,Small-visBig/09_64.jpg,Big-visSmall/09_15.jpg,m,543
46,critical,small,incongruent,TRUE,686,Big-visSmall/15_29.jpg,Small-visBig/15_72.jpg,c,546
46,critical,small,congruent,TRUE,589,Big-visBig/14_34.jpg,Small-visSmall/14_67.jpg,m,549
46,critical,small,incongruent,TRUE,547,Small-visBig/25_56.jpg,Big-visSmall/25_10.jpg,m,552
46,critical,small,incongruent,TRUE,597,Small-visBig/21_52.jpg,Big-visSmall/21_31.jpg,m,555
46,critical,small,congruent,TRUE,557,Big-visBig/06_02.jpg,Small-visSmall/06_43.jpg,m,558
46,critical,small,congruent,TRUE,567,Small-visSmall/29_69.jpg,Big-visBig/29_03.jpg,c,561
46,critical,small,congruent,TRUE,782,Big-visBig/08_35.jpg,Small-visSmall/08_45.jpg,m,564
46,critical,small,incongruent,TRUE,815,Small-visBig/23_70.jpg,Big-visSmall/23_16.jpg,m,567
46,critical,small,incongruent,TRUE,626,Big-visSmall/02_08.jpg,Small-visBig/02_44.jpg,c,570
46,critical,small,congruent,TRUE,464,Big-visBig/16_28.jpg,Small-visSmall/16_73.jpg,m,573
46,critical,small,congruent,TRUE,442,Small-visSmall/30_50.jpg,Big-visBig/30_20.jpg,c,576
46,critical,small,incongruent,TRUE,535,Small-visBig/24_61.jpg,Big-visSmall/24_06.jpg,m,579
46,critical,small,incongruent,TRUE,497,Big-visSmall/30_20.jpg,Small-visBig/30_50.jpg,c,582
46,critical,small,incongruent,TRUE,474,Big-visSmall/05_25.jpg,Small-visBig/05_54.jpg,c,585
46,critical,small,congruent,TRUE,590,Small-visSmall/02_44.jpg,Big-visBig/02_08.jpg,c,588
46,critical,small,incongruent,TRUE,561,Big-visSmall/19_17.jpg,Small-visBig/19_41.jpg,c,591
46,critical,small,congruent,TRUE,617,Small-visSmall/08_45.jpg,Big-visBig/08_35.jpg,c,594
46,critical,small,incongruent,TRUE,521,Big-visSmall/18_23.jpg,Small-visBig/18_76.jpg,c,597
46,critical,small,incongruent,TRUE,905,Big-visSmall/26_32.jpg,Small-visBig/26_42.jpg,c,600
46,critical,small,incongruent,TRUE,552,Small-visBig/11_71.jpg,Big-visSmall/11_40.jpg,m,603
46,critical,small,congruent,TRUE,721,Big-visBig/27_18.jpg,Small-visSmall/27_63.jpg,m,606
46,critical,small,congruent,TRUE,530,Big-visBig/10_09.jpg,Small-visSmall/10_59.jpg,m,609
46,critical,small,incongruent,TRUE,549,Small-visBig/06_43.jpg,Big-visSmall/06_02.jpg,m,612
46,critical,small,congruent,TRUE,523,Big-visBig/05_25.jpg,Small-visSmall/05_54.jpg,m,615
46,critical,small,incongruent,TRUE,565,Big-visSmall/24_06.jpg,Small-visBig/24_61.jpg,c,618
46,critical,small,congruent,TRUE,647,Big-visBig/11_40.jpg,Small-visSmall/11_71.jpg,m,621
46,critical,small,incongruent,TRUE,589,Big-visSmall/11_40.jpg,Small-visBig/11_71.jpg,c,624
46,critical,small,incongruent,TRUE,515,Small-visBig/10_59.jpg,Big-visSmall/10_09.jpg,m,627
46,critical,small,incongruent,TRUE,486,Small-visBig/14_67.jpg,Big-visSmall/14_34.jpg,m,630
46,critical,small,incongruent,TRUE,695,Big-visSmall/12_13.jpg,Small-visBig/12_58.jpg,c,633
46,critical,small,incongruent,TRUE,551,Small-visBig/15_72.jpg,Big-visSmall/15_29.jpg,m,636
46,critical,small,incongruent,TRUE,707,Small-visBig/07_51.jpg,Big-visSmall/07_33.jpg,m,639
46,critical,small,congruent,TRUE,738,Big-visBig/01_07.jpg,Small-visSmall/01_78.jpg,m,642
46,critical,small,congruent,TRUE,663,Big-visBig/03_36.jpg,Small-visSmall/03_57.jpg,m,645
46,critical,small,congruent,TRUE,479,Small-visSmall/14_67.jpg,Big-visBig/14_34.jpg,c,648
46,critical,small,incongruent,FALSE,514,Big-visSmall/29_03.jpg,Small-visBig/29_69.jpg,m,651
46,critical,small,incongruent,TRUE,948,Small-visBig/30_50.jpg,Big-visSmall/30_20.jpg,m,654
46,critical,small,congruent,TRUE,598,Big-visBig/23_16.jpg,Small-visSmall/23_70.jpg,m,657
46,critical,small,congruent,TRUE,536,Big-visBig/21_31.jpg,Small-visSmall/21_52.jpg,m,660
46,critical,small,incongruent,TRUE,673,Small-visBig/08_45.jpg,Big-visSmall/08_35.jpg,m,663
46,critical,small,incongruent,TRUE,638,Small-visBig/26_42.jpg,Big-visSmall/26_32.jpg,m,666
46,critical,small,congruent,TRUE,753,Small-visSmall/06_43.jpg,Big-visBig/06_02.jpg,c,669
46,critical,small,congruent,TRUE,642,Big-visBig/09_15.jpg,Small-visSmall/09_64.jpg,m,672
46,critical,small,congruent,TRUE,478,Big-visBig/22_26.jpg,Small-visSmall/22_65.jpg,m,675
46,critical,small,congruent,TRUE,541,Small-visSmall/05_54.jpg,Big-visBig/05_25.jpg,c,678
46,critical,small,incongruent,TRUE,849,Big-visSmall/09_15.jpg,Small-visBig/09_64.jpg,c,681
46,critical,small,congruent,TRUE,707,Big-visBig/13_19.jpg,Small-visSmall/13_77.jpg,m,684
46,critical,small,congruent,TRUE,712,Big-visBig/02_08.jpg,Small-visSmall/02_44.jpg,m,687
46,critical,small,incongruent,TRUE,834,Big-visSmall/01_07.jpg,Small-visBig/01_78.jpg,c,690
46,critical,small,incongruent,TRUE,658,Small-visBig/12_58.jpg,Big-visSmall/12_13.jpg,m,693
46,critical,small,incongruent,TRUE,556,Small-visBig/05_54.jpg,Big-visSmall/05_25.jpg,m,696
46,critical,small,congruent,TRUE,576,Small-visSmall/12_58.jpg,Big-visBig/12_13.jpg,c,699
46,critical,small,incongruent,TRUE,565,Big-visSmall/14_34.jpg,Small-visBig/14_67.jpg,c,702
46,critical,small,incongruent,TRUE,586,Small-visBig/19_41.jpg,Big-visSmall/19_17.jpg,m,705
46,critical,small,congruent,TRUE,615,Big-visBig/20_38.jpg,Small-visSmall/20_79.jpg,m,708
46,critical,small,incongruent,TRUE,553,Small-visBig/01_78.jpg,Big-visSmall/01_07.jpg,m,711
46,critical,small,congruent,TRUE,768,Small-visSmall/11_71.jpg,Big-visBig/11_40.jpg,c,714
46,critical,small,incongruent,TRUE,616,Small-visBig/18_76.jpg,Big-visSmall/18_23.jpg,m,717
46,critical,small,congruent,TRUE,618,Big-visBig/24_06.jpg,Small-visSmall/24_61.jpg,m,720
46,critical,small,incongruent,TRUE,1100,Big-visSmall/22_26.jpg,Small-visBig/22_65.jpg,c,723
46,critical,small,congruent,TRUE,679,Small-visSmall/19_41.jpg,Big-visBig/19_17.jpg,c,726
46,critical,small,congruent,TRUE,651,Small-visSmall/24_61.jpg,Big-visBig/24_06.jpg,c,729
46,critical,small,congruent,TRUE,546,Small-visSmall/10_59.jpg,Big-visBig/10_09.jpg,c,732
46,critical,small,congruent,TRUE,950,Big-visBig/17_21.jpg,Small-visSmall/17_80.jpg,m,735
46,critical,small,incongruent,TRUE,668,Small-visBig/20_79.jpg,Big-visSmall/20_38.jpg,m,738
46,critical,small,congruent,TRUE,827,Big-visBig/07_33.jpg,Small-visSmall/07_51.jpg,m,741
46,critical,small,congruent,TRUE,544,Big-visBig/19_17.jpg,Small-visSmall/19_41.jpg,m,744
46,critical,small,incongruent,TRUE,712,Small-visBig/02_44.jpg,Big-visSmall/02_08.jpg,m,747
46,critical,small,incongruent,TRUE,680,Small-visBig/22_65.jpg,Big-visSmall/22_26.jpg,m,750
46,critical,small,congruent,TRUE,515,Small-visSmall/15_72.jpg,Big-visBig/15_29.jpg,c,753
46,critical,small,incongruent,TRUE,559,Big-visSmall/28_12.jpg,Small-visBig/28_47.jpg,c,756
46,critical,big,incongruent,TRUE,800,Small-visBig/04_48.jpg,Big-visSmall/28_12.jpg,c,761
46,critical,big,incongruent,TRUE,786,Small-visBig/06_43.jpg,Big-visSmall/24_06.jpg,c,764
46,critical,big,congruent,TRUE,541,Small-visSmall/20_79.jpg,Big-visBig/26_32.jpg,m,767
46,critical,big,congruent,TRUE,603,Small-visSmall/01_78.jpg,Big-visBig/13_19.jpg,m,770
46,critical,big,incongruent,TRUE,947,Big-visSmall/25_10.jpg,Small-visBig/17_80.jpg,m,773
46,critical,big,incongruent,TRUE,765,Big-visSmall/09_15.jpg,Small-visBig/11_71.jpg,m,776
46,critical,big,congruent,TRUE,548,Big-visBig/27_18.jpg,Small-visSmall/22_65.jpg,c,779
46,critical,big,congruent,TRUE,1028,Big-visBig/26_32.jpg,Small-visSmall/20_79.jpg,c,782
46,critical,big,incongruent,TRUE,556,Big-visSmall/26_32.jpg,Small-visBig/20_79.jpg,m,785
46,critical,big,congruent,TRUE,681,Big-visBig/08_35.jpg,Small-visSmall/15_72.jpg,c,788
46,critical,big,incongruent,TRUE,692,Small-visBig/27_63.jpg,Big-visSmall/03_36.jpg,c,791
46,critical,big,incongruent,TRUE,798,Small-visBig/24_61.jpg,Big-visSmall/10_09.jpg,c,794
46,critical,big,congruent,TRUE,542,Small-visSmall/09_64.jpg,Big-visBig/04_05.jpg,m,797
46,critical,big,incongruent,TRUE,726,Small-visBig/20_79.jpg,Big-visSmall/26_32.jpg,c,800
46,critical,big,incongruent,TRUE,563,Big-visSmall/22_26.jpg,Small-visBig/29_69.jpg,m,803
46,critical,big,congruent,TRUE,520,Big-visBig/25_10.jpg,Small-visSmall/17_80.jpg,c,806
46,critical,big,congruent,TRUE,997,Big-visBig/30_20.jpg,Small-visSmall/16_73.jpg,c,809
46,critical,big,incongruent,TRUE,810,Small-visBig/16_73.jpg,Big-visSmall/30_20.jpg,c,812
46,critical,big,congruent,TRUE,841,Big-visBig/24_06.jpg,Small-visSmall/06_43.jpg,c,815
46,critical,big,incongruent,TRUE,586,Small-visBig/19_41.jpg,Big-visSmall/17_21.jpg,c,818
46,critical,big,incongruent,TRUE,601,Small-visBig/07_51.jpg,Big-visSmall/20_38.jpg,c,821
46,critical,big,incongruent,TRUE,397,Small-visBig/25_56.jpg,Big-visSmall/19_17.jpg,c,824
46,critical,big,congruent,TRUE,473,Small-visSmall/29_69.jpg,Big-visBig/22_26.jpg,m,827
46,critical,big,incongruent,TRUE,679,Small-visBig/23_70.jpg,Big-visSmall/18_23.jpg,c,830
46,critical,big,incongruent,TRUE,622,Big-visSmall/01_07.jpg,Small-visBig/28_47.jpg,m,833
46,critical,big,incongruent,TRUE,476,Small-visBig/22_65.jpg,Big-visSmall/27_18.jpg,c,836
46,critical,big,incongruent,TRUE,481,Small-visBig/03_57.jpg,Big-visSmall/02_08.jpg,c,839
46,critical,big,incongruent,TRUE,539,Small-visBig/18_76.jpg,Big-visSmall/05_25.jpg,c,842
46,critical,big,congruent,TRUE,416,Big-visBig/15_29.jpg,Small-visSmall/14_67.jpg,c,845
46,critical,big,congruent,TRUE,654,Big-visBig/09_15.jpg,Small-visSmall/11_71.jpg,c,848
46,critical,big,congruent,TRUE,795,Small-visSmall/28_47.jpg,Big-visBig/01_07.jpg,m,851
46,critical,big,congruent,TRUE,785,Big-visBig/03_36.jpg,Small-visSmall/27_63.jpg,c,854
46,critical,big,incongruent,TRUE,605,Big-visSmall/23_16.jpg,Small-visBig/12_58.jpg,m,857
46,critical,big,congruent,TRUE,561,Small-visSmall/26_42.jpg,Big-visBig/29_03.jpg,m,860
46,critical,big,incongruent,TRUE,580,Big-visSmall/14_34.jpg,Small-visBig/08_45.jpg,m,863
46,critical,big,congruent,TRUE,413,Small-visSmall/27_63.jpg,Big-visBig/03_36.jpg,m,866
46,critical,big,congruent,TRUE,578,Small-visSmall/25_56.jpg,Big-visBig/19_17.jpg,m,869
46,critical,big,incongruent,TRUE,438,Big-visSmall/16_28.jpg,Small-visBig/05_54.jpg,m,872
46,critical,big,congruent,TRUE,552,Big-visBig/12_13.jpg,Small-visSmall/02_44.jpg,c,875
46,critical,big,incongruent,TRUE,554,Small-visBig/01_78.jpg,Big-visSmall/13_19.jpg,c,878
46,critical,big,incongruent,TRUE,582,Big-visSmall/24_06.jpg,Small-visBig/06_43.jpg,m,881
46,critical,big,congruent,TRUE,590,Small-visSmall/13_77.jpg,Big-visBig/21_31.jpg,m,884
46,critical,big,congruent,TRUE,577,Big-visBig/28_12.jpg,Small-visSmall/04_48.jpg,c,887
46,critical,big,incongruent,TRUE,691,Small-visBig/21_52.jpg,Big-visSmall/06_02.jpg,c,890
46,critical,big,incongruent,TRUE,806,Small-visBig/17_80.jpg,Big-visSmall/25_10.jpg,c,893
46,critical,big,incongruent,TRUE,576,Big-visSmall/08_35.jpg,Small-visBig/15_72.jpg,m,896
46,critical,big,incongruent,TRUE,704,Small-visBig/30_50.jpg,Big-visSmall/11_40.jpg,c,899
46,critical,big,congruent,TRUE,510,Big-visBig/18_23.jpg,Small-visSmall/23_70.jpg,c,902
46,critical,big,congruent,TRUE,441,Big-visBig/19_17.jpg,Small-visSmall/25_56.jpg,c,905
46,critical,big,incongruent,TRUE,659,Big-visSmall/11_40.jpg,Small-visBig/30_50.jpg,m,908
46,critical,big,congruent,TRUE,548,Big-visBig/23_16.jpg,Small-visSmall/12_58.jpg,c,911
46,critical,big,congruent,TRUE,518,Big-visBig/02_08.jpg,Small-visSmall/03_57.jpg,c,914
46,critical,big,congruent,TRUE,425,Small-visSmall/15_72.jpg,Big-visBig/08_35.jpg,m,917
46,critical,big,incongruent,TRUE,478,Big-visSmall/07_33.jpg,Small-visBig/10_59.jpg,m,920
46,critical,big,congruent,TRUE,473,Big-visBig/20_38.jpg,Small-visSmall/07_51.jpg,c,923
46,critical,big,incongruent,TRUE,3043,Big-visSmall/04_05.jpg,Small-visBig/09_64.jpg,m,926
46,critical,big,congruent,TRUE,547,Small-visSmall/23_70.jpg,Big-visBig/18_23.jpg,m,929
46,critical,big,incongruent,TRUE,1035,Big-visSmall/29_03.jpg,Small-visBig/26_42.jpg,m,932
46,critical,big,incongruent,TRUE,579,Big-visSmall/13_19.jpg,Small-visBig/01_78.jpg,m,935
46,critical,big,congruent,TRUE,543,Small-visSmall/19_41.jpg,Big-visBig/17_21.jpg,m,938
46,critical,big,congruent,TRUE,518,Small-visSmall/05_54.jpg,Big-visBig/16_28.jpg,m,941
46,critical,big,incongruent,TRUE,535,Small-visBig/09_64.jpg,Big-visSmall/04_05.jpg,c,944
46,critical,big,congruent,TRUE,494,Big-visBig/17_21.jpg,Small-visSmall/19_41.jpg,c,947
46,critical,big,incongruent,TRUE,502,Small-visBig/26_42.jpg,Big-visSmall/29_03.jpg,c,950
46,critical,big,incongruent,TRUE,645,Small-visBig/05_54.jpg,Big-visSmall/16_28.jpg,c,953
46,critical,big,congruent,TRUE,491,Big-visBig/16_28.jpg,Small-visSmall/05_54.jpg,c,956
46,critical,big,incongruent,TRUE,564,Small-visBig/02_44.jpg,Big-visSmall/12_13.jpg,c,959
46,critical,big,congruent,TRUE,571,Small-visSmall/03_57.jpg,Big-visBig/02_08.jpg,m,962
46,critical,big,congruent,TRUE,509,Big-visBig/07_33.jpg,Small-visSmall/10_59.jpg,c,965
46,critical,big,congruent,TRUE,421,Big-visBig/11_40.jpg,Small-visSmall/30_50.jpg,c,968
46,critical,big,congruent,TRUE,680,Small-visSmall/24_61.jpg,Big-visBig/10_09.jpg,m,971
46,critical,big,incongruent,TRUE,493,Big-visSmall/06_02.jpg,Small-visBig/21_52.jpg,m,974
46,critical,big,congruent,TRUE,551,Big-visBig/10_09.jpg,Small-visSmall/24_61.jpg,c,977
46,critical,big,congruent,TRUE,640,Small-visSmall/04_48.jpg,Big-visBig/28_12.jpg,m,980
46,critical,big,incongruent,TRUE,537,Big-visSmall/19_17.jpg,Small-visBig/25_56.jpg,m,983
46,critical,big,congruent,TRUE,544,Big-visBig/14_34.jpg,Small-visSmall/08_45.jpg,c,986
46,critical,big,incongruent,TRUE,529,Small-visBig/14_67.jpg,Big-visSmall/15_29.jpg,c,989
46,critical,big,incongruent,TRUE,817,Big-visSmall/10_09.jpg,Small-visBig/24_61.jpg,m,992
46,critical,big,incongruent,TRUE,901,Big-visSmall/21_31.jpg,Small-visBig/13_77.jpg,m,995
46,critical,big,incongruent,TRUE,729,Big-visSmall/17_21.jpg,Small-visBig/19_41.jpg,m,998
46,critical,big,congruent,TRUE,618,Small-visSmall/22_65.jpg,Big-visBig/27_18.jpg,m,1001
46,critical,big,congruent,TRUE,1008,Small-visSmall/16_73.jpg,Big-visBig/30_20.jpg,m,1004
46,critical,big,congruent,TRUE,489,Big-visBig/22_26.jpg,Small-visSmall/29_69.jpg,c,1007
46,critical,big,incongruent,TRUE,676,Big-visSmall/03_36.jpg,Small-visBig/27_63.jpg,m,1010
46,critical,big,congruent,FALSE,967,Small-visSmall/14_67.jpg,Big-visBig/15_29.jpg,c,1013
46,critical,big,congruent,TRUE,576,Small-visSmall/17_80.jpg,Big-visBig/25_10.jpg,m,1016
46,critical,big,congruent,TRUE,690,Big-visBig/21_31.jpg,Small-visSmall/13_77.jpg,c,1019
46,critical,big,congruent,TRUE,533,Small-visSmall/06_43.jpg,Big-visBig/24_06.jpg,m,1022
46,critical,big,incongruent,TRUE,449,Small-visBig/10_59.jpg,Big-visSmall/07_33.jpg,c,1025
46,critical,big,congruent,TRUE,674,Big-visBig/01_07.jpg,Small-visSmall/28_47.jpg,c,1028
46,critical,big,congruent,TRUE,680,Small-visSmall/02_44.jpg,Big-visBig/12_13.jpg,m,1031
46,critical,big,congruent,TRUE,642,Big-visBig/06_02.jpg,Small-visSmall/21_52.jpg,c,1034
46,critical,big,congruent,TRUE,689,Big-visBig/13_19.jpg,Small-visSmall/01_78.jpg,c,1037
46,critical,big,congruent,TRUE,729,Small-visSmall/21_52.jpg,Big-visBig/06_02.jpg,m,1040
46,critical,big,congruent,TRUE,1009,Small-visSmall/11_71.jpg,Big-visBig/09_15.jpg,m,1043
46,critical,big,incongruent,TRUE,696,Big-visSmall/12_13.jpg,Small-visBig/02_44.jpg,m,1046
46,critical,big,incongruent,TRUE,529,Small-visBig/13_77.jpg,Big-visSmall/21_31.jpg,c,1049
46,critical,big,incongruent,TRUE,599,Small-visBig/12_58.jpg,Big-visSmall/23_16.jpg,c,1052
46,critical,big,incongruent,TRUE,533,Big-visSmall/05_25.jpg,Small-visBig/18_76.jpg,m,1055
46,critical,big,congruent,TRUE,544,Big-visBig/04_05.jpg,Small-visSmall/09_64.jpg,c,1058
46,critical,big,congruent,TRUE,599,Big-visBig/05_25.jpg,Small-visSmall/18_76.jpg,c,1061
46,critical,big,incongruent,TRUE,822,Big-visSmall/20_38.jpg,Small-visBig/07_51.jpg,m,1064
46,critical,big,incongruent,TRUE,749,Big-visSmall/27_18.jpg,Small-visBig/22_65.jpg,m,1067
46,critical,big,incongruent,TRUE,496,Small-visBig/11_71.jpg,Big-visSmall/09_15.jpg,c,1070
46,critical,big,congruent,TRUE,526,Big-visBig/29_03.jpg,Small-visSmall/26_42.jpg,c,1073
46,critical,big,congruent,TRUE,788,Small-visSmall/12_58.jpg,Big-visBig/23_16.jpg,m,1076
46,critical,big,incongruent,TRUE,501,Big-visSmall/02_08.jpg,Small-visBig/03_57.jpg,m,1079
46,critical,big,incongruent,TRUE,688,Big-visSmall/28_12.jpg,Small-visBig/04_48.jpg,m,1082
46,critical,big,incongruent,TRUE,716,Big-visSmall/30_20.jpg,Small-visBig/16_73.jpg,m,1085
46,critical,big,incongruent,TRUE,755,Small-visBig/08_45.jpg,Big-visSmall/14_34.jpg,c,1088
46,critical,big,incongruent,TRUE,804,Small-visBig/15_72.jpg,Big-visSmall/08_35.jpg,c,1091
46,critical,big,incongruent,TRUE,664,Small-visBig/28_47.jpg,Big-visSmall/01_07.jpg,c,1094
46,critical,big,congruent,TRUE,588,Small-visSmall/30_50.jpg,Big-visBig/11_40.jpg,m,1097
46,critical,big,congruent,TRUE,754,Small-visSmall/08_45.jpg,Big-visBig/14_34.jpg,m,1100
46,critical,big,congruent,TRUE,584,Small-visSmall/10_59.jpg,Big-visBig/07_33.jpg,m,1103
46,critical,big,incongruent,TRUE,582,Big-visSmall/18_23.jpg,Small-visBig/23_70.jpg,m,1106
46,critical,big,congruent,TRUE,569,Small-visSmall/07_51.jpg,Big-visBig/20_38.jpg,m,1109
46,critical,big,incongruent,TRUE,510,Big-visSmall/15_29.jpg,Small-visBig/14_67.jpg,m,1112
46,critical,big,incongruent,TRUE,892,Small-visBig/29_69.jpg,Big-visSmall/22_26.jpg,c,1115
46,critical,big,congruent,TRUE,469,Small-visSmall/18_76.jpg,Big-visBig/05_25.jpg,m,1118
46,critical,small,incongruent,TRUE,512,Small-visBig/10_59.jpg,Big-visSmall/07_33.jpg,m,1123
46,critical,small,congruent,TRUE,495,Big-visBig/25_10.jpg,Small-visSmall/17_80.jpg,m,1126
46,critical,small,congruent,TRUE,427,Big-visBig/23_16.jpg,Small-visSmall/12_58.jpg,m,1129
46,critical,small,congruent,TRUE,483,Small-visSmall/29_69.jpg,Big-visBig/22_26.jpg,c,1132
46,critical,small,incongruent,TRUE,468,Small-visBig/22_65.jpg,Big-visSmall/27_18.jpg,m,1135
46,critical,small,incongruent,TRUE,569,Big-visSmall/15_29.jpg,Small-visBig/14_67.jpg,c,1138
46,critical,small,incongruent,TRUE,414,Big-visSmall/07_33.jpg,Small-visBig/10_59.jpg,c,1141
46,critical,small,incongruent,TRUE,475,Small-visBig/03_57.jpg,Big-visSmall/02_08.jpg,m,1144
46,critical,small,congruent,TRUE,560,Small-visSmall/09_64.jpg,Big-visBig/04_05.jpg,c,1147
46,critical,small,congruent,TRUE,463,Small-visSmall/07_51.jpg,Big-visBig/20_38.jpg,c,1150
46,critical,small,congruent,TRUE,735,Big-visBig/09_15.jpg,Small-visSmall/11_71.jpg,m,1153
46,critical,small,congruent,TRUE,498,Small-visSmall/21_52.jpg,Big-visBig/06_02.jpg,c,1156
46,critical,small,congruent,TRUE,708,Big-visBig/02_08.jpg,Small-visSmall/03_57.jpg,m,1159
46,critical,small,incongruent,TRUE,952,Small-visBig/25_56.jpg,Big-visSmall/19_17.jpg,m,1162
46,critical,small,congruent,TRUE,583,Big-visBig/26_32.jpg,Small-visSmall/20_79.jpg,m,1165
46,critical,small,congruent,TRUE,558,Small-visSmall/20_79.jpg,Big-visBig/26_32.jpg,c,1168
46,critical,small,incongruent,TRUE,566,Small-visBig/23_70.jpg,Big-visSmall/18_23.jpg,m,1171
46,critical,small,congruent,TRUE,842,Big-visBig/08_35.jpg,Small-visSmall/15_72.jpg,m,1174
46,critical,small,congruent,TRUE,725,Big-visBig/18_23.jpg,Small-visSmall/23_70.jpg,m,1177
46,critical,small,incongruent,TRUE,957,Small-visBig/04_48.jpg,Big-visSmall/28_12.jpg,m,1180
46,critical,small,incongruent,TRUE,749,Big-visSmall/27_18.jpg,Small-visBig/22_65.jpg,c,1183
46,critical,small,incongruent,TRUE,1382,Small-visBig/29_69.jpg,Big-visSmall/22_26.jpg,m,1186
46,critical,small,incongruent,TRUE,987,Big-visSmall/04_05.jpg,Small-visBig/09_64.jpg,c,1189
46,critical,small,incongruent,TRUE,982,Small-visBig/19_41.jpg,Big-visSmall/17_21.jpg,m,1192
46,critical,small,incongruent,TRUE,1227,Big-visSmall/24_06.jpg,Small-visBig/06_43.jpg,c,1195
46,critical,small,congruent,TRUE,1029,Small-visSmall/19_41.jpg,Big-visBig/17_21.jpg,c,1198
46,critical,small,congruent,TRUE,972,Small-visSmall/03_57.jpg,Big-visBig/02_08.jpg,c,1201
46,critical,small,congruent,TRUE,1128,Small-visSmall/26_42.jpg,Big-visBig/29_03.jpg,c,1204
46,critical,small,incongruent,TRUE,645,Big-visSmall/14_34.jpg,Small-visBig/08_45.jpg,c,1207
46,critical,small,congruent,TRUE,799,Big-visBig/07_33.jpg,Small-visSmall/10_59.jpg,m,1210
46,critical,small,incongruent,TRUE,640,Small-visBig/21_52.jpg,Big-visSmall/06_02.jpg,m,1213
46,critical,small,congruent,TRUE,508,Small-visSmall/15_72.jpg,Big-visBig/08_35.jpg,c,1216
46,critical,small,incongruent,TRUE,517,Big-visSmall/23_16.jpg,Small-visBig/12_58.jpg,c,1219
46,critical,small,incongruent,TRUE,653,Small-visBig/06_43.jpg,Big-visSmall/24_06.jpg,m,1222
46,critical,small,congruent,TRUE,532,Small-visSmall/28_47.jpg,Big-visBig/01_07.jpg,c,1225
46,critical,small,congruent,TRUE,475,Small-visSmall/06_43.jpg,Big-visBig/24_06.jpg,c,1228
46,critical,small,incongruent,TRUE,475,Big-visSmall/12_13.jpg,Small-visBig/02_44.jpg,c,1231
46,critical,small,incongruent,TRUE,746,Big-visSmall/26_32.jpg,Small-visBig/20_79.jpg,c,1234
46,critical,small,incongruent,TRUE,1633,Small-visBig/09_64.jpg,Big-visSmall/04_05.jpg,m,1237
46,critical,small,congruent,TRUE,509,Big-visBig/24_06.jpg,Small-visSmall/06_43.jpg,m,1240
46,critical,small,congruent,TRUE,583,Small-visSmall/22_65.jpg,Big-visBig/27_18.jpg,c,1243
46,critical,small,incongruent,TRUE,599,Big-visSmall/20_38.jpg,Small-visBig/07_51.jpg,c,1246
46,critical,small,congruent,TRUE,704,Big-visBig/03_36.jpg,Small-visSmall/27_63.jpg,m,1249
46,critical,small,incongruent,TRUE,538,Big-visSmall/13_19.jpg,Small-visBig/01_78.jpg,c,1252
46,critical,small,congruent,TRUE,482,Small-visSmall/17_80.jpg,Big-visBig/25_10.jpg,c,1255
46,critical,small,congruent,TRUE,576,Big-visBig/21_31.jpg,Small-visSmall/13_77.jpg,m,1258
46,critical,small,congruent,TRUE,541,Small-visSmall/14_67.jpg,Big-visBig/15_29.jpg,c,1261
46,critical,small,congruent,TRUE,597,Big-visBig/10_09.jpg,Small-visSmall/24_61.jpg,m,1264
46,critical,small,incongruent,TRUE,578,Small-visBig/16_73.jpg,Big-visSmall/30_20.jpg,m,1267
46,critical,small,congruent,TRUE,551,Small-visSmall/10_59.jpg,Big-visBig/07_33.jpg,c,1270
46,critical,small,congruent,TRUE,761,Small-visSmall/08_45.jpg,Big-visBig/14_34.jpg,c,1273
46,critical,small,incongruent,TRUE,513,Small-visBig/05_54.jpg,Big-visSmall/16_28.jpg,m,1276
46,critical,small,congruent,TRUE,470,Small-visSmall/30_50.jpg,Big-visBig/11_40.jpg,c,1279
46,critical,small,incongruent,TRUE,519,Big-visSmall/17_21.jpg,Small-visBig/19_41.jpg,c,1282
46,critical,small,incongruent,TRUE,610,Small-visBig/02_44.jpg,Big-visSmall/12_13.jpg,m,1285
46,critical,small,congruent,TRUE,480,Big-visBig/04_05.jpg,Small-visSmall/09_64.jpg,m,1288
46,critical,small,incongruent,FALSE,752,Small-visBig/12_58.jpg,Big-visSmall/23_16.jpg,c,1291
46,critical,small,incongruent,TRUE,1449,Big-visSmall/03_36.jpg,Small-visBig/27_63.jpg,c,1294
46,critical,small,incongruent,TRUE,653,Big-visSmall/06_02.jpg,Small-visBig/21_52.jpg,c,1297
46,critical,small,congruent,TRUE,791,Small-visSmall/27_63.jpg,Big-visBig/03_36.jpg,c,1300
46,critical,small,incongruent,TRUE,1063,Big-visSmall/10_09.jpg,Small-visBig/24_61.jpg,c,1303
46,critical,small,congruent,TRUE,967,Big-visBig/01_07.jpg,Small-visSmall/28_47.jpg,m,1306
46,critical,small,congruent,TRUE,711,Small-visSmall/12_58.jpg,Big-visBig/23_16.jpg,c,1309
46,critical,small,incongruent,TRUE,803,Big-visSmall/11_40.jpg,Small-visBig/30_50.jpg,c,1312
46,critical,small,incongruent,TRUE,707,Small-visBig/15_72.jpg,Big-visSmall/08_35.jpg,m,1315
46,critical,small,incongruent,TRUE,587,Small-visBig/14_67.jpg,Big-visSmall/15_29.jpg,m,1318
46,critical,small,congruent,TRUE,779,Small-visSmall/24_61.jpg,Big-visBig/10_09.jpg,c,1321
46,critical,small,congruent,TRUE,1002,Big-visBig/06_02.jpg,Small-visSmall/21_52.jpg,m,1324
46,critical,small,congruent,TRUE,922,Big-visBig/17_21.jpg,Small-visSmall/19_41.jpg,m,1327
46,critical,small,incongruent,TRUE,562,Small-visBig/13_77.jpg,Big-visSmall/21_31.jpg,m,1330
46,critical,small,incongruent,TRUE,540,Small-visBig/27_63.jpg,Big-visSmall/03_36.jpg,m,1333
46,critical,small,congruent,TRUE,1426,Small-visSmall/16_73.jpg,Big-visBig/30_20.jpg,c,1336
46,critical,small,incongruent,TRUE,1118,Big-visSmall/29_03.jpg,Small-visBig/26_42.jpg,c,1339
46,critical,small,congruent,TRUE,736,Small-visSmall/05_54.jpg,Big-visBig/16_28.jpg,c,1342
46,critical,small,congruent,TRUE,607,Big-visBig/27_18.jpg,Small-visSmall/22_65.jpg,m,1345
46,critical,small,congruent,TRUE,1121,Big-visBig/05_25.jpg,Small-visSmall/18_76.jpg,m,1348
46,critical,small,incongruent,TRUE,755,Small-visBig/18_76.jpg,Big-visSmall/05_25.jpg,m,1351
46,critical,small,incongruent,TRUE,818,Big-visSmall/05_25.jpg,Small-visBig/18_76.jpg,c,1354
46,critical,small,congruent,TRUE,811,Big-visBig/15_29.jpg,Small-visSmall/14_67.jpg,m,1357
46,critical,small,incongruent,TRUE,794,Big-visSmall/30_20.jpg,Small-visBig/16_73.jpg,c,1360
46,critical,small,congruent,TRUE,798,Small-visSmall/04_48.jpg,Big-visBig/28_12.jpg,c,1363
46,critical,small,congruent,TRUE,722,Big-visBig/12_13.jpg,Small-visSmall/02_44.jpg,m,1366
46,critical,small,incongruent,TRUE,803,Big-visSmall/21_31.jpg,Small-visBig/13_77.jpg,c,1369
46,critical,small,incongruent,TRUE,553,Big-visSmall/18_23.jpg,Small-visBig/23_70.jpg,c,1372
46,critical,small,incongruent,TRUE,954,Big-visSmall/22_26.jpg,Small-visBig/29_69.jpg,c,1375
46,critical,small,congruent,TRUE,477,Big-visBig/29_03.jpg,Small-visSmall/26_42.jpg,m,1378
46,critical,small,congruent,TRUE,501,Big-visBig/30_20.jpg,Small-visSmall/16_73.jpg,m,1381
46,critical,small,incongruent,TRUE,524,Big-visSmall/16_28.jpg,Small-visBig/05_54.jpg,c,1384
46,critical,small,incongruent,TRUE,479,Big-visSmall/02_08.jpg,Small-visBig/03_57.jpg,c,1387
46,critical,small,congruent,TRUE,814,Big-visBig/14_34.jpg,Small-visSmall/08_45.jpg,m,1390
46,critical,small,incongruent,TRUE,534,Small-visBig/01_78.jpg,Big-visSmall/13_19.jpg,m,1393
46,critical,small,congruent,TRUE,491,Big-visBig/20_38.jpg,Small-visSmall/07_51.jpg,m,1396
46,critical,small,incongruent,TRUE,550,Small-visBig/30_50.jpg,Big-visSmall/11_40.jpg,m,1399
46,critical,small,congruent,TRUE,488,Big-visBig/19_17.jpg,Small-visSmall/25_56.jpg,m,1402
46,critical,small,congruent,TRUE,545,Big-visBig/28_12.jpg,Small-visSmall/04_48.jpg,m,1405
46,critical,small,congruent,TRUE,541,Big-visBig/11_40.jpg,Small-visSmall/30_50.jpg,m,1408
46,critical,small,incongruent,TRUE,513,Small-visBig/08_45.jpg,Big-visSmall/14_34.jpg,m,1411
46,critical,small,congruent,TRUE,411,Big-visBig/16_28.jpg,Small-visSmall/05_54.jpg,m,1414
46,critical,small,congruent,TRUE,395,Big-visBig/22_26.jpg,Small-visSmall/29_69.jpg,m,1417
46,critical,small,congruent,FALSE,468,Small-visSmall/23_70.jpg,Big-visBig/18_23.jpg,m,1420
46,critical,small,incongruent,TRUE,662,Small-visBig/07_51.jpg,Big-visSmall/20_38.jpg,m,1423
46,critical,small,incongruent,TRUE,560,Big-visSmall/09_15.jpg,Small-visBig/11_71.jpg,c,1426
46,critical,small,incongruent,TRUE,838,Small-visBig/26_42.jpg,Big-visSmall/29_03.jpg,m,1429
46,critical,small,incongruent,TRUE,1077,Small-visBig/24_61.jpg,Big-visSmall/10_09.jpg,m,1432
46,critical,small,incongruent,TRUE,690,Small-visBig/17_80.jpg,Big-visSmall/25_10.jpg,m,1435
46,critical,small,incongruent,TRUE,815,Small-visBig/28_47.jpg,Big-visSmall/01_07.jpg,m,1438
46,critical,small,incongruent,TRUE,841,Big-visSmall/25_10.jpg,Small-visBig/17_80.jpg,c,1441
46,critical,small,incongruent,TRUE,811,Big-visSmall/01_07.jpg,Small-visBig/28_47.jpg,c,1444
46,critical,small,incongruent,TRUE,606,Big-visSmall/28_12.jpg,Small-visBig/04_48.jpg,c,1447
46,critical,small,incongruent,TRUE,856,Small-visBig/20_79.jpg,Big-visSmall/26_32.jpg,m,1450
46,critical,small,incongruent,TRUE,582,Big-visSmall/19_17.jpg,Small-visBig/25_56.jpg,c,1453
46,critical,small,congruent,TRUE,756,Small-visSmall/01_78.jpg,Big-visBig/13_19.jpg,c,1456
46,critical,small,incongruent,TRUE,570,Big-visSmall/08_35.jpg,Small-visBig/15_72.jpg,c,1459
46,critical,small,congruent,TRUE,747,Small-visSmall/11_71.jpg,Big-visBig/09_15.jpg,c,1462
46,critical,small,congruent,TRUE,628,Small-visSmall/02_44.jpg,Big-visBig/12_13.jpg,c,1465
46,critical,small,congruent,TRUE,545,Small-visSmall/18_76.jpg,Big-visBig/05_25.jpg,c,1468
46,critical,small,incongruent,TRUE,863,Small-visBig/11_71.jpg,Big-visSmall/09_15.jpg,m,1471
46,critical,small,congruent,TRUE,771,Big-visBig/13_19.jpg,Small-visSmall/01_78.jpg,m,1474
46,critical,small,congruent,TRUE,614,Small-visSmall/25_56.jpg,Big-visBig/19_17.jpg,c,1477
46,critical,small,congruent,TRUE,531,Small-visSmall/13_77.jpg,Big-visBig/21_31.jpg,c,1480
