workerid,proliferate.condition,ask,correct,failed_audio,failed_images,failed_video,group,internal_node_id,left,response,right,rt,stimulus,success,time_elapsed,timeout,trial_index,trial_type,type,error
46,long,,,,,,,0.0-0.0,,0,,54576,"<p> By answering the following questions, you are participating in a study being performed as part of a class by cognitive scientists in the Stanford Department of Psychology. If you have questions about this research, please contact us at vero.boyce@gmail.com. You must be at least 18 years old to participate. Your participation in this research is voluntary. You may decline to answer any or all of the following questions. You may decline further participation, at any time, without adverse consequences. Your anonymity is assured; the researchers who have requested your participation will not receive any information about you other than what you provide here.</p>",,54581,,0,html-button-response,,
46,long,,,[],[],[],,0.0-1.0,,,,,,True,55033,False,1,preload,,
46,long,,,,,,,0.0-2.0-0.0,, ,,14228,"<p> <b> Practice: </b> Which image is <b>bigger</b>?</p> <br> <p> Press <b>c</b> for image on left, and <b>m</b> for image on right as quickly and accurately as possible. </p> <p> Press space to continue.</p>",,69262,,2,html-keyboard-response,,
46,long,,,,,,,0.0-3.0-0.0,,,,,"<div style=""font-size:60px;"">+</div>",,69966,,3,html-keyboard-response,,
46,long,big,True,,,,random,0.0-3.0-1.0,Small-visSmall/14_67.jpg,m,Big-visBig/15_29.jpg,1172,"
            <img src=""Small-visSmall/14_67.jpg"" style=""margin-right: 50px""> 
            <img src=""Big-visBig/15_29.jpg"" style=""margin-left: 50px"">
            ",,71140,,4,html-keyboard-response,congruent,
46,long,,,,,,,0.0-3.0-2.0,,,,,,,72051,,5,html-keyboard-response,,
46,long,,,,,,,0.0-3.0-0.1,,,,,"<div style=""font-size:60px;"">+</div>",,72765,,6,html-keyboard-response,,
46,long,big,False,,,,random,0.0-3.0-1.1,Small-visSmall/08_45.jpg,c,Big-visBig/14_34.jpg,1889,"
            <img src=""Small-visSmall/08_45.jpg"" style=""margin-right: 50px""> 
            <img src=""Big-visBig/14_34.jpg"" style=""margin-left: 50px"">
            ",,74656,,7,html-keyboard-response,congruent,
46,long,,,,,,,0.0-3.0-2.1,,,,,"<div style=""font-size:60px; color:#FF0000""><p>Incorrect!</p></div>",,79663,,8,html-keyboard-response,,
46,long,,,,,,,0.0-3.0-0.2,,,,,"<div style=""font-size:60px;"">+</div>",,80377,,9,html-keyboard-response,,
46,long,big,False,,,,random,0.0-3.0-1.2,Small-visBig/05_54.jpg,m,Big-visSmall/16_28.jpg,1475,"
            <img src=""Small-visBig/05_54.jpg"" style=""margin-right: 50px""> 
            <img src=""Big-visSmall/16_28.jpg"" style=""margin-left: 50px"">
            ",,81854,,10,html-keyboard-response,incongruent,
46,long,,,,,,,0.0-3.0-2.2,,,,,"<div style=""font-size:60px; color:#FF0000""><p>Incorrect!</p></div>",,86867,,11,html-keyboard-response,,
46,long,,,,,,,0.0-3.0-0.3,,,,,"<div style=""font-size:60px;"">+</div>",,87579,,12,html-keyboard-response,,
46,long,big,True,,,,random,0.0-3.0-1.3,Big-visSmall/14_34.jpg,m,Small-visBig/08_45.jpg,752,"
            <img src=""Big-visSmall/14_34.jpg"" style=""margin-right: 50px""> 
            <img src=""Small-visBig/08_45.jpg"" style=""margin-left: 50px"">
            ",,88332,,13,html-keyboard-response,incongruent,
46,long,,,,,,,0.0-3.0-2.3,,,,,,,89242,,14,html-keyboard-response,,
46,long,,,,,,,0.0-3.0-0.4,,,,,"<div style=""font-size:60px;"">+</div>",,89957,,15,html-keyboard-response,,
46,long,big,True,,,,random,0.0-3.0-1.4,Small-visSmall/28_47.jpg,m,Big-visBig/01_07.jpg,744,"
            <img src=""Small-visSmall/28_47.jpg"" style=""margin-right: 50px""> 
            <img src=""Big-visBig/01_07.jpg"" style=""margin-left: 50px"">
            ",,90703,,16,html-keyboard-response,congruent,
46,long,,,,,,,0.0-3.0-2.4,,,,,,,91619,,17,html-keyboard-response,,
46,long,,,,,,,0.0-4.0-0.0,, ,,3556,"<p> <b> Practice: </b> Which image is <b>smaller</b>? </p> <br> <p> Press <b>c</b> for image on left, and <b>m</b> for image on right as quickly and accurately as possible. </p> <p> Press space to continue.</p>",,95176,,18,html-keyboard-response,,
46,long,,,,,,,0.0-5.0-0.0,,,,,"<div style=""font-size:60px;"">+</div>",,95889,,19,html-keyboard-response,,
46,long,small,False,,,,random,0.0-5.0-1.0,Big-visBig/12_13.jpg,c,Small-visSmall/02_44.jpg,558,"
            <img src=""Big-visBig/12_13.jpg"" style=""margin-right: 50px""> 
            <img src=""Small-visSmall/02_44.jpg"" style=""margin-left: 50px"">
            ",,96448,,20,html-keyboard-response,congruent,
46,long,,,,,,,0.0-5.0-2.0,,,,,"<div style=""font-size:60px; color:#FF0000""><p>Incorrect!</p></div>",,101456,,21,html-keyboard-response,,
46,long,,,,,,,0.0-5.0-0.1,,,,,"<div style=""font-size:60px;"">+</div>",,102172,,22,html-keyboard-response,,
46,long,small,True,,,,random,0.0-5.0-1.1,Big-visBig/05_25.jpg,m,Small-visSmall/18_76.jpg,508,"
            <img src=""Big-visBig/05_25.jpg"" style=""margin-right: 50px""> 
            <img src=""Small-visSmall/18_76.jpg"" style=""margin-left: 50px"">
            ",,102682,,23,html-keyboard-response,congruent,
46,long,,,,,,,0.0-5.0-2.1,,,,,,,103584,,24,html-keyboard-response,,
46,long,,,,,,,0.0-5.0-0.2,,,,,"<div style=""font-size:60px;"">+</div>",,104299,,25,html-keyboard-response,,
46,long,small,True,,,,random,0.0-5.0-1.2,Big-visSmall/13_19.jpg,c,Small-visBig/01_78.jpg,944,"
            <img src=""Big-visSmall/13_19.jpg"" style=""margin-right: 50px""> 
            <img src=""Small-visBig/01_78.jpg"" style=""margin-left: 50px"">
            ",,105245,,26,html-keyboard-response,incongruent,
46,long,,,,,,,0.0-5.0-2.2,,,,,,,106154,,27,html-keyboard-response,,
46,long,,,,,,,0.0-5.0-0.3,,,,,"<div style=""font-size:60px;"">+</div>",,106868,,28,html-keyboard-response,,
46,long,small,True,,,,random,0.0-5.0-1.3,Small-visSmall/28_47.jpg,c,Big-visBig/01_07.jpg,644,"
            <img src=""Small-visSmall/28_47.jpg"" style=""margin-right: 50px""> 
            <img src=""Big-visBig/01_07.jpg"" style=""margin-left: 50px"">
            ",,107513,,29,html-keyboard-response,congruent,
46,long,,,,,,,0.0-5.0-2.3,,,,,,,108424,,30,html-keyboard-response,,
46,long,,,,,,,0.0-5.0-0.4,,,,,"<div style=""font-size:60px;"">+</div>",,109137,,31,html-keyboard-response,,
46,long,small,True,,,,random,0.0-5.0-1.4,Big-visSmall/05_25.jpg,c,Small-visBig/18_76.jpg,675,"
            <img src=""Big-visSmall/05_25.jpg"" style=""margin-right: 50px""> 
            <img src=""Small-visBig/18_76.jpg"" style=""margin-left: 50px"">
            ",,109814,,32,html-keyboard-response,incongruent,
46,long,,,,,,,0.0-5.0-2.4,,,,,,,110719,,33,html-keyboard-response,,
46,long,,,,,,,0.0-6.0-0.0,, ,,2650,<p> Great job! You are now ready to start the main experiment! </p> <br> <p> Press space to continue. </p>,,113370,,34,html-keyboard-response,,
46,long,,,,,,,0.0-7.0-0.0,, ,,10683,"<p> <b> Block 1 out of 4 (5 minutes): </b>Which image is <b>bigger</b>?</p> <br> <p>Press <b>c</b> for image on left, and <b>m</b> for image on right as quickly and accurately as possible. </p> <br> <p> Press space to continue.</p>",,124054,,35,html-keyboard-response,,
46,long,,,,,,,0.0-8.0-0.0,,,,,"<div style=""font-size:60px;"">+</div>",,124759,,36,html-keyboard-response,,
46,long,big,True,,,,preset,0.0-8.0-1.0,Big-visSmall/29_03.jpg,m,Small-visBig/29_69.jpg,640,"
            <img src=""Big-visSmall/29_03.jpg"" style=""margin-right: 50px""> 
            <img src=""Small-visBig/29_69.jpg"" style=""margin-left: 50px"">
            ",,125400,,37,html-keyboard-response,incongruent,
46,long,,,,,,,0.0-8.0-2.0,,,,,,,126317,,38,html-keyboard-response,,
46,long,,,,,,,0.0-8.0-0.1,,,,,"<div style=""font-size:60px;"">+</div>",,127033,,39,html-keyboard-response,,
46,long,big,True,,,,preset,0.0-8.0-1.1,Small-visSmall/21_52.jpg,m,Big-visBig/21_31.jpg,1066,"
            <img src=""Small-visSmall/21_52.jpg"" style=""margin-right: 50px""> 
            <img src=""Big-visBig/21_31.jpg"" style=""margin-left: 50px"">
            ",,128100,,40,html-keyboard-response,congruent,
46,long,,,,,,,0.0-8.0-2.1,,,,,,,129002,,41,html-keyboard-response,,
46,long,,,,,,,0.0-8.0-0.2,,,,,"<div style=""font-size:60px;"">+</div>",,129718,,42,html-keyboard-response,,
46,long,big,True,,,,preset,0.0-8.0-1.2,Big-visSmall/19_17.jpg,m,Small-visBig/19_41.jpg,584,"
            <img src=""Big-visSmall/19_17.jpg"" style=""margin-right: 50px""> 
            <img src=""Small-visBig/19_41.jpg"" style=""margin-left: 50px"">
            ",,130305,,43,html-keyboard-response,incongruent,
46,long,,,,,,,0.0-8.0-2.2,,,,,,,131214,,44,html-keyboard-response,,
46,long,,,,,,,0.0-8.0-0.3,,,,,"<div style=""font-size:60px;"">+</div>",,131925,,45,html-keyboard-response,,
46,long,big,True,,,,preset,0.0-8.0-1.3,Small-visSmall/04_48.jpg,m,Big-visBig/04_05.jpg,654,"
            <img src=""Small-visSmall/04_48.jpg"" style=""margin-right: 50px""> 
            <img src=""Big-visBig/04_05.jpg"" style=""margin-left: 50px"">
            ",,132581,,46,html-keyboard-response,congruent,
46,long,,,,,,,0.0-8.0-2.3,,,,,,,133484,,47,html-keyboard-response,,
46,long,,,,,,,0.0-8.0-0.4,,,,,"<div style=""font-size:60px;"">+</div>",,134196,,48,html-keyboard-response,,
46,long,big,True,,,,preset,0.0-8.0-1.4,Big-visBig/07_33.jpg,c,Small-visSmall/07_51.jpg,644,"
            <img src=""Big-visBig/07_33.jpg"" style=""margin-right: 50px""> 
            <img src=""Small-visSmall/07_51.jpg"" style=""margin-left: 50px"">
            ",,134842,,49,html-keyboard-response,congruent,
46,long,,,,,,,0.0-8.0-2.4,,,,,,,135745,,50,html-keyboard-response,,
46,long,,,,,,,0.0-8.0-0.5,,,,,"<div style=""font-size:60px;"">+</div>",,136457,,51,html-keyboard-response,,
46,long,big,True,,,,preset,0.0-8.0-1.5,Small-visBig/28_47.jpg,c,Big-visSmall/28_12.jpg,774,"
            <img src=""Small-visBig/28_47.jpg"" style=""margin-right: 50px""> 
            <img src=""Big-visSmall/28_12.jpg"" style=""margin-left: 50px"">
            ",,137233,,52,html-keyboard-response,incongruent,
46,long,,,,,,,0.0-8.0-2.5,,,,,,,138140,,53,html-keyboard-response,,
46,long,,,,,,,0.0-8.0-0.6,,,,,"<div style=""font-size:60px;"">+</div>",,138855,,54,html-keyboard-response,,
46,long,big,True,,,,preset,0.0-8.0-1.6,Big-visBig/10_09.jpg,c,Small-visSmall/10_59.jpg,679,"
            <img src=""Big-visBig/10_09.jpg"" style=""margin-right: 50px""> 
            <img src=""Small-visSmall/10_59.jpg"" style=""margin-left: 50px"">
            ",,139535,,55,html-keyboard-response,congruent,
46,long,,,,,,,0.0-8.0-2.6,,,,,,,140442,,56,html-keyboard-response,,
46,long,,,,,,,0.0-8.0-0.7,,,,,"<div style=""font-size:60px;"">+</div>",,141155,,57,html-keyboard-response,,
46,long,big,True,,,,preset,0.0-8.0-1.7,Small-visBig/12_58.jpg,c,Big-visSmall/12_13.jpg,605,"
            <img src=""Small-visBig/12_58.jpg"" style=""margin-right: 50px""> 
            <img src=""Big-visSmall/12_13.jpg"" style=""margin-left: 50px"">
            ",,141761,,58,html-keyboard-response,incongruent,
46,long,,,,,,,0.0-8.0-2.7,,,,,,,142663,,59,html-keyboard-response,,
46,long,,,,,,,0.0-8.0-0.8,,,,,"<div style=""font-size:60px;"">+</div>",,143377,,60,html-keyboard-response,,
46,long,big,True,,,,preset,0.0-8.0-1.8,Small-visSmall/29_69.jpg,m,Big-visBig/29_03.jpg,686,"
            <img src=""Small-visSmall/29_69.jpg"" style=""margin-right: 50px""> 
            <img src=""Big-visBig/29_03.jpg"" style=""margin-left: 50px"">
            ",,144065,,61,html-keyboard-response,congruent,
46,long,,,,,,,0.0-8.0-2.8,,,,,,,144981,,62,html-keyboard-response,,
46,long,,,,,,,0.0-8.0-0.9,,,,,"<div style=""font-size:60px;"">+</div>",,145690,,63,html-keyboard-response,,
46,long,big,True,,,,preset,0.0-8.0-1.9,Big-visBig/20_38.jpg,c,Small-visSmall/20_79.jpg,874,"
            <img src=""Big-visBig/20_38.jpg"" style=""margin-right: 50px""> 
            <img src=""Small-visSmall/20_79.jpg"" style=""margin-left: 50px"">
            ",,146566,,64,html-keyboard-response,congruent,
46,long,,,,,,,0.0-8.0-2.9,,,,,,,147482,,65,html-keyboard-response,,
46,long,,,,,,,0.0-8.0-0.10,,,,,"<div style=""font-size:60px;"">+</div>",,148192,,66,html-keyboard-response,,
46,long,big,True,,,,preset,0.0-8.0-1.10,Small-visSmall/16_73.jpg,m,Big-visBig/16_28.jpg,573,"
            <img src=""Small-visSmall/16_73.jpg"" style=""margin-right: 50px""> 
            <img src=""Big-visBig/16_28.jpg"" style=""margin-left: 50px"">
            ",,148767,,67,html-keyboard-response,congruent,
46,long,,,,,,,0.0-8.0-2.10,,,,,,,149683,,68,html-keyboard-response,,
46,long,,,,,,,0.0-8.0-0.11,,,,,"<div style=""font-size:60px;"">+</div>",,150398,,69,html-keyboard-response,,
46,long,big,True,,,,preset,0.0-8.0-1.11,Small-visSmall/13_77.jpg,m,Big-visBig/13_19.jpg,732,"
            <img src=""Small-visSmall/13_77.jpg"" style=""margin-right: 50px""> 
            <img src=""Big-visBig/13_19.jpg"" style=""margin-left: 50px"">
            ",,151131,,70,html-keyboard-response,congruent,
46,long,,,,,,,0.0-8.0-2.11,,,,,,,152035,,71,html-keyboard-response,,
46,long,,,,,,,0.0-8.0-0.12,,,,,"<div style=""font-size:60px;"">+</div>",,152747,,72,html-keyboard-response,,
46,long,big,True,,,,preset,0.0-8.0-1.12,Big-visBig/04_05.jpg,c,Small-visSmall/04_48.jpg,629,"
            <img src=""Big-visBig/04_05.jpg"" style=""margin-right: 50px""> 
            <img src=""Small-visSmall/04_48.jpg"" style=""margin-left: 50px"">
            ",,153377,,73,html-keyboard-response,congruent,
46,long,,,,,,,0.0-8.0-2.12,,,,,,,154284,,74,html-keyboard-response,,
46,long,,,,,,,0.0-8.0-0.13,,,,,"<div style=""font-size:60px;"">+</div>",,154996,,75,html-keyboard-response,,
46,long,big,True,,,,preset,0.0-8.0-1.13,Big-visBig/24_06.jpg,c,Small-visSmall/24_61.jpg,528,"
            <img src=""Big-visBig/24_06.jpg"" style=""margin-right: 50px""> 
            <img src=""Small-visSmall/24_61.jpg"" style=""margin-left: 50px"">
            ",,155526,,76,html-keyboard-response,congruent,
46,long,,,,,,,0.0-8.0-2.13,,,,,,,156432,,77,html-keyboard-response,,
46,long,,,,,,,0.0-8.0-0.14,,,,,"<div style=""font-size:60px;"">+</div>",,157144,,78,html-keyboard-response,,
46,long,big,True,,,,preset,0.0-8.0-1.14,Small-visBig/03_57.jpg,c,Big-visSmall/03_36.jpg,586,"
            <img src=""Small-visBig/03_57.jpg"" style=""margin-right: 50px""> 
            <img src=""Big-visSmall/03_36.jpg"" style=""margin-left: 50px"">
            ",,157731,,79,html-keyboard-response,incongruent,
46,long,,,,,,,0.0-8.0-2.14,,,,,,,158640,,80,html-keyboard-response,,
46,long,,,,,,,0.0-8.0-0.15,,,,,"<div style=""font-size:60px;"">+</div>",,159345,,81,html-keyboard-response,,
46,long,big,True,,,,preset,0.0-8.0-1.15,Small-visBig/10_59.jpg,c,Big-visSmall/10_09.jpg,707,"
            <img src=""Small-visBig/10_59.jpg"" style=""margin-right: 50px""> 
            <img src=""Big-visSmall/10_09.jpg"" style=""margin-left: 50px"">
            ",,160053,,82,html-keyboard-response,incongruent,
46,long,,,,,,,0.0-8.0-2.15,,,,,,,160963,,83,html-keyboard-response,,
46,long,,,,,,,0.0-8.0-0.16,,,,,"<div style=""font-size:60px;"">+</div>",,161676,,84,html-keyboard-response,,
46,long,big,True,,,,preset,0.0-8.0-1.16,Big-visSmall/15_29.jpg,m,Small-visBig/15_72.jpg,570,"
            <img src=""Big-visSmall/15_29.jpg"" style=""margin-right: 50px""> 
            <img src=""Small-visBig/15_72.jpg"" style=""margin-left: 50px"">
            ",,162248,,85,html-keyboard-response,incongruent,
46,long,,,,,,,0.0-8.0-2.16,,,,,,,163154,,86,html-keyboard-response,,
46,long,,,,,,,0.0-8.0-0.17,,,,,"<div style=""font-size:60px;"">+</div>",,163865,,87,html-keyboard-response,,
46,long,big,True,,,,preset,0.0-8.0-1.17,Big-visSmall/16_28.jpg,m,Small-visBig/16_73.jpg,702,"
            <img src=""Big-visSmall/16_28.jpg"" style=""margin-right: 50px""> 
            <img src=""Small-visBig/16_73.jpg"" style=""margin-left: 50px"">
            ",,164568,,88,html-keyboard-response,incongruent,
46,long,,,,,,,0.0-8.0-2.17,,,,,,,165480,,89,html-keyboard-response,,
46,long,,,,,,,0.0-8.0-0.18,,,,,"<div style=""font-size:60px;"">+</div>",,166192,,90,html-keyboard-response,,
46,long,big,True,,,,preset,0.0-8.0-1.18,Big-visBig/11_40.jpg,c,Small-visSmall/11_71.jpg,509,"
            <img src=""Big-visBig/11_40.jpg"" style=""margin-right: 50px""> 
            <img src=""Small-visSmall/11_71.jpg"" style=""margin-left: 50px"">
            ",,166702,,91,html-keyboard-response,congruent,
46,long,,,,,,,0.0-8.0-2.18,,,,,,,167619,,92,html-keyboard-response,,
46,long,,,,,,,0.0-8.0-0.19,,,,,"<div style=""font-size:60px;"">+</div>",,168332,,93,html-keyboard-response,,
46,long,big,True,,,,preset,0.0-8.0-1.19,Small-visSmall/28_47.jpg,m,Big-visBig/28_12.jpg,550,"
            <img src=""Small-visSmall/28_47.jpg"" style=""margin-right: 50px""> 
            <img src=""Big-visBig/28_12.jpg"" style=""margin-left: 50px"">
            ",,168883,,94,html-keyboard-response,congruent,
46,long,,,,,,,0.0-8.0-2.19,,,,,,,169792,,95,html-keyboard-response,,
46,long,,,,,,,0.0-8.0-0.20,,,,,"<div style=""font-size:60px;"">+</div>",,170508,,96,html-keyboard-response,,
46,long,big,True,,,,preset,0.0-8.0-1.20,Small-visSmall/06_43.jpg,m,Big-visBig/06_02.jpg,559,"
            <img src=""Small-visSmall/06_43.jpg"" style=""margin-right: 50px""> 
            <img src=""Big-visBig/06_02.jpg"" style=""margin-left: 50px"">
            ",,171069,,97,html-keyboard-response,congruent,
46,long,,,,,,,0.0-8.0-2.20,,,,,,,171980,,98,html-keyboard-response,,
46,long,,,,,,,0.0-8.0-0.21,,,,,"<div style=""font-size:60px;"">+</div>",,172693,,99,html-keyboard-response,,
46,long,big,True,,,,preset,0.0-8.0-1.21,Big-visSmall/05_25.jpg,m,Small-visBig/05_54.jpg,560,"
            <img src=""Big-visSmall/05_25.jpg"" style=""margin-right: 50px""> 
            <img src=""Small-visBig/05_54.jpg"" style=""margin-left: 50px"">
            ",,173254,,100,html-keyboard-response,incongruent,
46,long,,,,,,,0.0-8.0-2.21,,,,,,,174166,,101,html-keyboard-response,,
46,long,,,,,,,0.0-8.0-0.22,,,,,"<div style=""font-size:60px;"">+</div>",,174880,,102,html-keyboard-response,,
46,long,big,True,,,,preset,0.0-8.0-1.22,Small-visBig/26_42.jpg,c,Big-visSmall/26_32.jpg,542,"
            <img src=""Small-visBig/26_42.jpg"" style=""margin-right: 50px""> 
            <img src=""Big-visSmall/26_32.jpg"" style=""margin-left: 50px"">
            ",,175423,,103,html-keyboard-response,incongruent,
46,long,,,,,,,0.0-8.0-2.22,,,,,,,176334,,104,html-keyboard-response,,
46,long,,,,,,,0.0-8.0-0.23,,,,,"<div style=""font-size:60px;"">+</div>",,177049,,105,html-keyboard-response,,
46,long,big,True,,,,preset,0.0-8.0-1.23,Small-visSmall/08_45.jpg,m,Big-visBig/08_35.jpg,560,"
            <img src=""Small-visSmall/08_45.jpg"" style=""margin-right: 50px""> 
            <img src=""Big-visBig/08_35.jpg"" style=""margin-left: 50px"">
            ",,177611,,106,html-keyboard-response,congruent,
46,long,,,,,,,0.0-8.0-2.23,,,,,,,178524,,107,html-keyboard-response,,
46,long,,,,,,,0.0-8.0-0.24,,,,,"<div style=""font-size:60px;"">+</div>",,179238,,108,html-keyboard-response,,
46,long,big,True,,,,preset,0.0-8.0-1.24,Small-visSmall/15_72.jpg,m,Big-visBig/15_29.jpg,749,"
            <img src=""Small-visSmall/15_72.jpg"" style=""margin-right: 50px""> 
            <img src=""Big-visBig/15_29.jpg"" style=""margin-left: 50px"">
            ",,179988,,109,html-keyboard-response,congruent,
46,long,,,,,,,0.0-8.0-2.24,,,,,,,180902,,110,html-keyboard-response,,
46,long,,,,,,,0.0-8.0-0.25,,,,,"<div style=""font-size:60px;"">+</div>",,181618,,111,html-keyboard-response,,
46,long,big,True,,,,preset,0.0-8.0-1.25,Big-visSmall/28_12.jpg,m,Small-visBig/28_47.jpg,621,"
            <img src=""Big-visSmall/28_12.jpg"" style=""margin-right: 50px""> 
            <img src=""Small-visBig/28_47.jpg"" style=""margin-left: 50px"">
            ",,182240,,112,html-keyboard-response,incongruent,
46,long,,,,,,,0.0-8.0-2.25,,,,,,,183153,,113,html-keyboard-response,,
46,long,,,,,,,0.0-8.0-0.26,,,,,"<div style=""font-size:60px;"">+</div>",,183866,,114,html-keyboard-response,,
46,long,big,True,,,,preset,0.0-8.0-1.26,Small-visBig/22_65.jpg,c,Big-visSmall/22_26.jpg,582,"
            <img src=""Small-visBig/22_65.jpg"" style=""margin-right: 50px""> 
            <img src=""Big-visSmall/22_26.jpg"" style=""margin-left: 50px"">
            ",,184450,,115,html-keyboard-response,incongruent,
46,long,,,,,,,0.0-8.0-2.26,,,,,,,185359,,116,html-keyboard-response,,
46,long,,,,,,,0.0-8.0-0.27,,,,,"<div style=""font-size:60px;"">+</div>",,186060,,117,html-keyboard-response,,
46,long,big,True,,,,preset,0.0-8.0-1.27,Small-visSmall/27_63.jpg,m,Big-visBig/27_18.jpg,566,"
            <img src=""Small-visSmall/27_63.jpg"" style=""margin-right: 50px""> 
            <img src=""Big-visBig/27_18.jpg"" style=""margin-left: 50px"">
            ",,186627,,118,html-keyboard-response,congruent,
46,long,,,,,,,0.0-8.0-2.27,,,,,,,187538,,119,html-keyboard-response,,
46,long,,,,,,,0.0-8.0-0.28,,,,,"<div style=""font-size:60px;"">+</div>",,188251,,120,html-keyboard-response,,
46,long,big,True,,,,preset,0.0-8.0-1.28,Small-visBig/19_41.jpg,c,Big-visSmall/19_17.jpg,562,"
            <img src=""Small-visBig/19_41.jpg"" style=""margin-right: 50px""> 
            <img src=""Big-visSmall/19_17.jpg"" style=""margin-left: 50px"">
            ",,188815,,121,html-keyboard-response,incongruent,
46,long,,,,,,,0.0-8.0-2.28,,,,,,,189727,,122,html-keyboard-response,,
46,long,,,,,,,0.0-8.0-0.29,,,,,"<div style=""font-size:60px;"">+</div>",,190442,,123,html-keyboard-response,,
46,long,big,True,,,,preset,0.0-8.0-1.29,Big-visBig/05_25.jpg,c,Small-visSmall/05_54.jpg,726,"
            <img src=""Big-visBig/05_25.jpg"" style=""margin-right: 50px""> 
            <img src=""Small-visSmall/05_54.jpg"" style=""margin-left: 50px"">
            ",,191173,,124,html-keyboard-response,congruent,
46,long,,,,,,,0.0-8.0-2.29,,,,,,,192085,,125,html-keyboard-response,,
46,long,,,,,,,0.0-8.0-0.30,,,,,"<div style=""font-size:60px;"">+</div>",,192796,,126,html-keyboard-response,,
46,long,big,True,,,,preset,0.0-8.0-1.30,Big-visBig/28_12.jpg,c,Small-visSmall/28_47.jpg,482,"
            <img src=""Big-visBig/28_12.jpg"" style=""margin-right: 50px""> 
            <img src=""Small-visSmall/28_47.jpg"" style=""margin-left: 50px"">
            ",,193280,,127,html-keyboard-response,congruent,
46,long,,,,,,,0.0-8.0-2.30,,,,,,,194190,,128,html-keyboard-response,,
46,long,,,,,,,0.0-8.0-0.31,,,,,"<div style=""font-size:60px;"">+</div>",,194905,,129,html-keyboard-response,,
46,long,big,True,,,,preset,0.0-8.0-1.31,Big-visBig/03_36.jpg,c,Small-visSmall/03_57.jpg,812,"
            <img src=""Big-visBig/03_36.jpg"" style=""margin-right: 50px""> 
            <img src=""Small-visSmall/03_57.jpg"" style=""margin-left: 50px"">
            ",,195718,,130,html-keyboard-response,congruent,
46,long,,,,,,,0.0-8.0-2.31,,,,,,,196634,,131,html-keyboard-response,,
46,long,,,,,,,0.0-8.0-0.32,,,,,"<div style=""font-size:60px;"">+</div>",,197343,,132,html-keyboard-response,,
46,long,big,True,,,,preset,0.0-8.0-1.32,Small-visBig/02_44.jpg,c,Big-visSmall/02_08.jpg,768,"
            <img src=""Small-visBig/02_44.jpg"" style=""margin-right: 50px""> 
            <img src=""Big-visSmall/02_08.jpg"" style=""margin-left: 50px"">
            ",,198113,,133,html-keyboard-response,incongruent,
46,long,,,,,,,0.0-8.0-2.32,,,,,,,199014,,134,html-keyboard-response,,
46,long,,,,,,,0.0-8.0-0.33,,,,,"<div style=""font-size:60px;"">+</div>",,199728,,135,html-keyboard-response,,
46,long,big,True,,,,preset,0.0-8.0-1.33,Small-visBig/21_52.jpg,c,Big-visSmall/21_31.jpg,571,"
            <img src=""Small-visBig/21_52.jpg"" style=""margin-right: 50px""> 
            <img src=""Big-visSmall/21_31.jpg"" style=""margin-left: 50px"">
            ",,200301,,136,html-keyboard-response,incongruent,
46,long,,,,,,,0.0-8.0-2.33,,,,,,,201203,,137,html-keyboard-response,,
46,long,,,,,,,0.0-8.0-0.34,,,,,"<div style=""font-size:60px;"">+</div>",,201905,,138,html-keyboard-response,,
46,long,big,True,,,,preset,0.0-8.0-1.34,Big-visSmall/08_35.jpg,m,Small-visBig/08_45.jpg,584,"
            <img src=""Big-visSmall/08_35.jpg"" style=""margin-right: 50px""> 
            <img src=""Small-visBig/08_45.jpg"" style=""margin-left: 50px"">
            ",,202490,,139,html-keyboard-response,incongruent,
46,long,,,,,,,0.0-8.0-2.34,,,,,,,203395,,140,html-keyboard-response,,
46,long,,,,,,,0.0-8.0-0.35,,,,,"<div style=""font-size:60px;"">+</div>",,204106,,141,html-keyboard-response,,
46,long,big,True,,,,preset,0.0-8.0-1.35,Small-visBig/20_79.jpg,c,Big-visSmall/20_38.jpg,642,"
            <img src=""Small-visBig/20_79.jpg"" style=""margin-right: 50px""> 
            <img src=""Big-visSmall/20_38.jpg"" style=""margin-left: 50px"">
            ",,204750,,142,html-keyboard-response,incongruent,
46,long,,,,,,,0.0-8.0-2.35,,,,,,,205657,,143,html-keyboard-response,,
46,long,,,,,,,0.0-8.0-0.36,,,,,"<div style=""font-size:60px;"">+</div>",,206370,,144,html-keyboard-response,,
46,long,big,True,,,,preset,0.0-8.0-1.36,Small-visSmall/10_59.jpg,m,Big-visBig/10_09.jpg,631,"
            <img src=""Small-visSmall/10_59.jpg"" style=""margin-right: 50px""> 
            <img src=""Big-visBig/10_09.jpg"" style=""margin-left: 50px"">
            ",,207003,,145,html-keyboard-response,congruent,
46,long,,,,,,,0.0-8.0-2.36,,,,,,,207904,,146,html-keyboard-response,,
46,long,,,,,,,0.0-8.0-0.37,,,,,"<div style=""font-size:60px;"">+</div>",,208616,,147,html-keyboard-response,,
46,long,big,True,,,,preset,0.0-8.0-1.37,Small-visSmall/25_56.jpg,m,Big-visBig/25_10.jpg,856,"
            <img src=""Small-visSmall/25_56.jpg"" style=""margin-right: 50px""> 
            <img src=""Big-visBig/25_10.jpg"" style=""margin-left: 50px"">
            ",,209473,,148,html-keyboard-response,congruent,
46,long,,,,,,,0.0-8.0-2.37,,,,,,,210386,,149,html-keyboard-response,,
46,long,,,,,,,0.0-8.0-0.38,,,,,"<div style=""font-size:60px;"">+</div>",,211089,,150,html-keyboard-response,,
46,long,big,True,,,,preset,0.0-8.0-1.38,Big-visSmall/11_40.jpg,m,Small-visBig/11_71.jpg,621,"
            <img src=""Big-visSmall/11_40.jpg"" style=""margin-right: 50px""> 
            <img src=""Small-visBig/11_71.jpg"" style=""margin-left: 50px"">
            ",,211711,,151,html-keyboard-response,incongruent,
46,long,,,,,,,0.0-8.0-2.38,,,,,,,212628,,152,html-keyboard-response,,
46,long,,,,,,,0.0-8.0-0.39,,,,,"<div style=""font-size:60px;"">+</div>",,213344,,153,html-keyboard-response,,
46,long,big,True,,,,preset,0.0-8.0-1.39,Big-visSmall/17_21.jpg,m,Small-visBig/17_80.jpg,567,"
            <img src=""Big-visSmall/17_21.jpg"" style=""margin-right: 50px""> 
            <img src=""Small-visBig/17_80.jpg"" style=""margin-left: 50px"">
            ",,213912,,154,html-keyboard-response,incongruent,
46,long,,,,,,,0.0-8.0-2.39,,,,,,,214816,,155,html-keyboard-response,,
46,long,,,,,,,0.0-8.0-0.40,,,,,"<div style=""font-size:60px;"">+</div>",,215527,,156,html-keyboard-response,,
46,long,big,True,,,,preset,0.0-8.0-1.40,Big-visBig/27_18.jpg,c,Small-visSmall/27_63.jpg,504,"
            <img src=""Big-visBig/27_18.jpg"" style=""margin-right: 50px""> 
            <img src=""Small-visSmall/27_63.jpg"" style=""margin-left: 50px"">
            ",,216032,,157,html-keyboard-response,congruent,
46,long,,,,,,,0.0-8.0-2.40,,,,,,,216940,,158,html-keyboard-response,,
46,long,,,,,,,0.0-8.0-0.41,,,,,"<div style=""font-size:60px;"">+</div>",,217655,,159,html-keyboard-response,,
46,long,big,True,,,,preset,0.0-8.0-1.41,Big-visSmall/22_26.jpg,m,Small-visBig/22_65.jpg,626,"
            <img src=""Big-visSmall/22_26.jpg"" style=""margin-right: 50px""> 
            <img src=""Small-visBig/22_65.jpg"" style=""margin-left: 50px"">
            ",,218282,,160,html-keyboard-response,incongruent,
46,long,,,,,,,0.0-8.0-2.41,,,,,,,219184,,161,html-keyboard-response,,
46,long,,,,,,,0.0-8.0-0.42,,,,,"<div style=""font-size:60px;"">+</div>",,219896,,162,html-keyboard-response,,
46,long,big,True,,,,preset,0.0-8.0-1.42,Big-visSmall/04_05.jpg,m,Small-visBig/04_48.jpg,599,"
            <img src=""Big-visSmall/04_05.jpg"" style=""margin-right: 50px""> 
            <img src=""Small-visBig/04_48.jpg"" style=""margin-left: 50px"">
            ",,220497,,163,html-keyboard-response,incongruent,
46,long,,,,,,,0.0-8.0-2.42,,,,,,,221403,,164,html-keyboard-response,,
46,long,,,,,,,0.0-8.0-0.43,,,,,"<div style=""font-size:60px;"">+</div>",,222115,,165,html-keyboard-response,,
46,long,big,True,,,,preset,0.0-8.0-1.43,Big-visBig/21_31.jpg,c,Small-visSmall/21_52.jpg,502,"
            <img src=""Big-visBig/21_31.jpg"" style=""margin-right: 50px""> 
            <img src=""Small-visSmall/21_52.jpg"" style=""margin-left: 50px"">
            ",,222618,,166,html-keyboard-response,congruent,
46,long,,,,,,,0.0-8.0-2.43,,,,,,,223529,,167,html-keyboard-response,,
46,long,,,,,,,0.0-8.0-0.44,,,,,"<div style=""font-size:60px;"">+</div>",,224244,,168,html-keyboard-response,,
46,long,big,True,,,,preset,0.0-8.0-1.44,Big-visBig/25_10.jpg,c,Small-visSmall/25_56.jpg,588,"
            <img src=""Big-visBig/25_10.jpg"" style=""margin-right: 50px""> 
            <img src=""Small-visSmall/25_56.jpg"" style=""margin-left: 50px"">
            ",,224834,,169,html-keyboard-response,congruent,
46,long,,,,,,,0.0-8.0-2.44,,,,,,,225750,,170,html-keyboard-response,,
46,long,,,,,,,0.0-8.0-0.45,,,,,"<div style=""font-size:60px;"">+</div>",,226466,,171,html-keyboard-response,,
46,long,big,True,,,,preset,0.0-8.0-1.45,Small-visBig/06_43.jpg,c,Big-visSmall/06_02.jpg,588,"
            <img src=""Small-visBig/06_43.jpg"" style=""margin-right: 50px""> 
            <img src=""Big-visSmall/06_02.jpg"" style=""margin-left: 50px"">
            ",,227056,,172,html-keyboard-response,incongruent,
46,long,,,,,,,0.0-8.0-2.45,,,,,,,227970,,173,html-keyboard-response,,
46,long,,,,,,,0.0-8.0-0.46,,,,,"<div style=""font-size:60px;"">+</div>",,228677,,174,html-keyboard-response,,
46,long,big,True,,,,preset,0.0-8.0-1.46,Small-visSmall/05_54.jpg,m,Big-visBig/05_25.jpg,641,"
            <img src=""Small-visSmall/05_54.jpg"" style=""margin-right: 50px""> 
            <img src=""Big-visBig/05_25.jpg"" style=""margin-left: 50px"">
            ",,229319,,175,html-keyboard-response,congruent,
46,long,,,,,,,0.0-8.0-2.46,,,,,,,230231,,176,html-keyboard-response,,
46,long,,,,,,,0.0-8.0-0.47,,,,,"<div style=""font-size:60px;"">+</div>",,230948,,177,html-keyboard-response,,
46,long,big,True,,,,preset,0.0-8.0-1.47,Small-visBig/27_63.jpg,c,Big-visSmall/27_18.jpg,547,"
            <img src=""Small-visBig/27_63.jpg"" style=""margin-right: 50px""> 
            <img src=""Big-visSmall/27_18.jpg"" style=""margin-left: 50px"">
            ",,231495,,178,html-keyboard-response,incongruent,
46,long,,,,,,,0.0-8.0-2.47,,,,,,,232406,,179,html-keyboard-response,,
46,long,,,,,,,0.0-8.0-0.48,,,,,"<div style=""font-size:60px;"">+</div>",,233120,,180,html-keyboard-response,,
46,long,big,True,,,,preset,0.0-8.0-1.48,Small-visBig/15_72.jpg,c,Big-visSmall/15_29.jpg,511,"
            <img src=""Small-visBig/15_72.jpg"" style=""margin-right: 50px""> 
            <img src=""Big-visSmall/15_29.jpg"" style=""margin-left: 50px"">
            ",,233633,,181,html-keyboard-response,incongruent,
46,long,,,,,,,0.0-8.0-2.48,,,,,,,234550,,182,html-keyboard-response,,
46,long,,,,,,,0.0-8.0-0.49,,,,,"<div style=""font-size:60px;"">+</div>",,235264,,183,html-keyboard-response,,
46,long,big,True,,,,preset,0.0-8.0-1.49,Small-visSmall/24_61.jpg,m,Big-visBig/24_06.jpg,568,"
            <img src=""Small-visSmall/24_61.jpg"" style=""margin-right: 50px""> 
            <img src=""Big-visBig/24_06.jpg"" style=""margin-left: 50px"">
            ",,235833,,184,html-keyboard-response,congruent,
46,long,,,,,,,0.0-8.0-2.49,,,,,,,236749,,185,html-keyboard-response,,
46,long,,,,,,,0.0-8.0-0.50,,,,,"<div style=""font-size:60px;"">+</div>",,237466,,186,html-keyboard-response,,
46,long,big,True,,,,preset,0.0-8.0-1.50,Small-visSmall/22_65.jpg,m,Big-visBig/22_26.jpg,659,"
            <img src=""Small-visSmall/22_65.jpg"" style=""margin-right: 50px""> 
            <img src=""Big-visBig/22_26.jpg"" style=""margin-left: 50px"">
            ",,238126,,187,html-keyboard-response,congruent,
46,long,,,,,,,0.0-8.0-2.50,,,,,,,239040,,188,html-keyboard-response,,
46,long,,,,,,,0.0-8.0-0.51,,,,,"<div style=""font-size:60px;"">+</div>",,239752,,189,html-keyboard-response,,
46,long,big,True,,,,preset,0.0-8.0-1.51,Big-visSmall/30_20.jpg,m,Small-visBig/30_50.jpg,682,"
            <img src=""Big-visSmall/30_20.jpg"" style=""margin-right: 50px""> 
            <img src=""Small-visBig/30_50.jpg"" style=""margin-left: 50px"">
            ",,240436,,190,html-keyboard-response,incongruent,
46,long,,,,,,,0.0-8.0-2.51,,,,,,,241337,,191,html-keyboard-response,,
46,long,,,,,,,0.0-8.0-0.52,,,,,"<div style=""font-size:60px;"">+</div>",,242038,,192,html-keyboard-response,,
46,long,big,True,,,,preset,0.0-8.0-1.52,Big-visSmall/24_06.jpg,m,Small-visBig/24_61.jpg,760,"
            <img src=""Big-visSmall/24_06.jpg"" style=""margin-right: 50px""> 
            <img src=""Small-visBig/24_61.jpg"" style=""margin-left: 50px"">
            ",,242799,,193,html-keyboard-response,incongruent,
46,long,,,,,,,0.0-8.0-2.52,,,,,,,243711,,194,html-keyboard-response,,
46,long,,,,,,,0.0-8.0-0.53,,,,,"<div style=""font-size:60px;"">+</div>",,244427,,195,html-keyboard-response,,
46,long,big,True,,,,preset,0.0-8.0-1.53,Small-visBig/01_78.jpg,c,Big-visSmall/01_07.jpg,680,"
            <img src=""Small-visBig/01_78.jpg"" style=""margin-right: 50px""> 
            <img src=""Big-visSmall/01_07.jpg"" style=""margin-left: 50px"">
            ",,245108,,196,html-keyboard-response,incongruent,
46,long,,,,,,,0.0-8.0-2.53,,,,,,,246011,,197,html-keyboard-response,,
46,long,,,,,,,0.0-8.0-0.54,,,,,"<div style=""font-size:60px;"">+</div>",,246713,,198,html-keyboard-response,,
46,long,big,True,,,,preset,0.0-8.0-1.54,Big-visBig/15_29.jpg,c,Small-visSmall/15_72.jpg,670,"
            <img src=""Big-visBig/15_29.jpg"" style=""margin-right: 50px""> 
            <img src=""Small-visSmall/15_72.jpg"" style=""margin-left: 50px"">
            ",,247384,,199,html-keyboard-response,congruent,
46,long,,,,,,,0.0-8.0-2.54,,,,,,,248292,,200,html-keyboard-response,,
46,long,,,,,,,0.0-8.0-0.55,,,,,"<div style=""font-size:60px;"">+</div>",,249002,,201,html-keyboard-response,,
46,long,big,True,,,,preset,0.0-8.0-1.55,Big-visBig/19_17.jpg,c,Small-visSmall/19_41.jpg,531,"
            <img src=""Big-visBig/19_17.jpg"" style=""margin-right: 50px""> 
            <img src=""Small-visSmall/19_41.jpg"" style=""margin-left: 50px"">
            ",,249535,,202,html-keyboard-response,congruent,
46,long,,,,,,,0.0-8.0-2.55,,,,,,,250449,,203,html-keyboard-response,,
46,long,,,,,,,0.0-8.0-0.56,,,,,"<div style=""font-size:60px;"">+</div>",,251166,,204,html-keyboard-response,,
46,long,big,True,,,,preset,0.0-8.0-1.56,Big-visSmall/02_08.jpg,m,Small-visBig/02_44.jpg,685,"
            <img src=""Big-visSmall/02_08.jpg"" style=""margin-right: 50px""> 
            <img src=""Small-visBig/02_44.jpg"" style=""margin-left: 50px"">
            ",,251852,,205,html-keyboard-response,incongruent,
46,long,,,,,,,0.0-8.0-2.56,,,,,,,252764,,206,html-keyboard-response,,
46,long,,,,,,,0.0-8.0-0.57,,,,,"<div style=""font-size:60px;"">+</div>",,253478,,207,html-keyboard-response,,
46,long,big,True,,,,preset,0.0-8.0-1.57,Big-visSmall/25_10.jpg,m,Small-visBig/25_56.jpg,695,"
            <img src=""Big-visSmall/25_10.jpg"" style=""margin-right: 50px""> 
            <img src=""Small-visBig/25_56.jpg"" style=""margin-left: 50px"">
            ",,254174,,208,html-keyboard-response,incongruent,
46,long,,,,,,,0.0-8.0-2.57,,,,,,,255080,,209,html-keyboard-response,,
46,long,,,,,,,0.0-8.0-0.58,,,,,"<div style=""font-size:60px;"">+</div>",,255783,,210,html-keyboard-response,,
46,long,big,True,,,,preset,0.0-8.0-1.58,Small-visBig/05_54.jpg,c,Big-visSmall/05_25.jpg,581,"
            <img src=""Small-visBig/05_54.jpg"" style=""margin-right: 50px""> 
            <img src=""Big-visSmall/05_25.jpg"" style=""margin-left: 50px"">
            ",,256365,,211,html-keyboard-response,incongruent,
46,long,,,,,,,0.0-8.0-2.58,,,,,,,257277,,212,html-keyboard-response,,
46,long,,,,,,,0.0-8.0-0.59,,,,,"<div style=""font-size:60px;"">+</div>",,257992,,213,html-keyboard-response,,
46,long,big,True,,,,preset,0.0-8.0-1.59,Small-visBig/04_48.jpg,c,Big-visSmall/04_05.jpg,565,"
            <img src=""Small-visBig/04_48.jpg"" style=""margin-right: 50px""> 
            <img src=""Big-visSmall/04_05.jpg"" style=""margin-left: 50px"">
            ",,258558,,214,html-keyboard-response,incongruent,
46,long,,,,,,,0.0-8.0-2.59,,,,,,,259475,,215,html-keyboard-response,,
46,long,,,,,,,0.0-8.0-0.60,,,,,"<div style=""font-size:60px;"">+</div>",,260189,,216,html-keyboard-response,,
46,long,big,True,,,,preset,0.0-8.0-1.60,Small-visBig/18_76.jpg,c,Big-visSmall/18_23.jpg,577,"
            <img src=""Small-visBig/18_76.jpg"" style=""margin-right: 50px""> 
            <img src=""Big-visSmall/18_23.jpg"" style=""margin-left: 50px"">
            ",,260767,,217,html-keyboard-response,incongruent,
46,long,,,,,,,0.0-8.0-2.60,,,,,,,261669,,218,html-keyboard-response,,
46,long,,,,,,,0.0-8.0-0.61,,,,,"<div style=""font-size:60px;"">+</div>",,262382,,219,html-keyboard-response,,
46,long,big,True,,,,preset,0.0-8.0-1.61,Big-visBig/09_15.jpg,c,Small-visSmall/09_64.jpg,565,"
            <img src=""Big-visBig/09_15.jpg"" style=""margin-right: 50px""> 
            <img src=""Small-visSmall/09_64.jpg"" style=""margin-left: 50px"">
            ",,262949,,220,html-keyboard-response,congruent,
46,long,,,,,,,0.0-8.0-2.61,,,,,,,263856,,221,html-keyboard-response,,
46,long,,,,,,,0.0-8.0-0.62,,,,,"<div style=""font-size:60px;"">+</div>",,264569,,222,html-keyboard-response,,
46,long,big,True,,,,preset,0.0-8.0-1.62,Small-visBig/23_70.jpg,c,Big-visSmall/23_16.jpg,535,"
            <img src=""Small-visBig/23_70.jpg"" style=""margin-right: 50px""> 
            <img src=""Big-visSmall/23_16.jpg"" style=""margin-left: 50px"">
            ",,265106,,223,html-keyboard-response,incongruent,
46,long,,,,,,,0.0-8.0-2.62,,,,,,,266007,,224,html-keyboard-response,,
46,long,,,,,,,0.0-8.0-0.63,,,,,"<div style=""font-size:60px;"">+</div>",,266723,,225,html-keyboard-response,,
46,long,big,True,,,,preset,0.0-8.0-1.63,Big-visSmall/03_36.jpg,m,Small-visBig/03_57.jpg,453,"
            <img src=""Big-visSmall/03_36.jpg"" style=""margin-right: 50px""> 
            <img src=""Small-visBig/03_57.jpg"" style=""margin-left: 50px"">
            ",,267177,,226,html-keyboard-response,incongruent,
46,long,,,,,,,0.0-8.0-2.63,,,,,,,268089,,227,html-keyboard-response,,
46,long,,,,,,,0.0-8.0-0.64,,,,,"<div style=""font-size:60px;"">+</div>",,268804,,228,html-keyboard-response,,
46,long,big,True,,,,preset,0.0-8.0-1.64,Small-visBig/29_69.jpg,c,Big-visSmall/29_03.jpg,894,"
            <img src=""Small-visBig/29_69.jpg"" style=""margin-right: 50px""> 
            <img src=""Big-visSmall/29_03.jpg"" style=""margin-left: 50px"">
            ",,269700,,229,html-keyboard-response,incongruent,
46,long,,,,,,,0.0-8.0-2.64,,,,,,,270611,,230,html-keyboard-response,,
46,long,,,,,,,0.0-8.0-0.65,,,,,"<div style=""font-size:60px;"">+</div>",,271325,,231,html-keyboard-response,,
46,long,big,True,,,,preset,0.0-8.0-1.65,Small-visBig/14_67.jpg,c,Big-visSmall/14_34.jpg,808,"
            <img src=""Small-visBig/14_67.jpg"" style=""margin-right: 50px""> 
            <img src=""Big-visSmall/14_34.jpg"" style=""margin-left: 50px"">
            ",,272134,,232,html-keyboard-response,incongruent,
46,long,,,,,,,0.0-8.0-2.65,,,,,,,273039,,233,html-keyboard-response,,
46,long,,,,,,,0.0-8.0-0.66,,,,,"<div style=""font-size:60px;"">+</div>",,273755,,234,html-keyboard-response,,
46,long,big,True,,,,preset,0.0-8.0-1.66,Small-visSmall/17_80.jpg,m,Big-visBig/17_21.jpg,570,"
            <img src=""Small-visSmall/17_80.jpg"" style=""margin-right: 50px""> 
            <img src=""Big-visBig/17_21.jpg"" style=""margin-left: 50px"">
            ",,274327,,235,html-keyboard-response,congruent,
46,long,,,,,,,0.0-8.0-2.66,,,,,,,275234,,236,html-keyboard-response,,
46,long,,,,,,,0.0-8.0-0.67,,,,,"<div style=""font-size:60px;"">+</div>",,275949,,237,html-keyboard-response,,
46,long,big,True,,,,preset,0.0-8.0-1.67,Big-visBig/17_21.jpg,c,Small-visSmall/17_80.jpg,566,"
            <img src=""Big-visBig/17_21.jpg"" style=""margin-right: 50px""> 
            <img src=""Small-visSmall/17_80.jpg"" style=""margin-left: 50px"">
            ",,276516,,238,html-keyboard-response,congruent,
46,long,,,,,,,0.0-8.0-2.67,,,,,,,277426,,239,html-keyboard-response,,
46,long,,,,,,,0.0-8.0-0.68,,,,,"<div style=""font-size:60px;"">+</div>",,278139,,240,html-keyboard-response,,
46,long,big,True,,,,preset,0.0-8.0-1.68,Big-visBig/02_08.jpg,c,Small-visSmall/02_44.jpg,656,"
            <img src=""Big-visBig/02_08.jpg"" style=""margin-right: 50px""> 
            <img src=""Small-visSmall/02_44.jpg"" style=""margin-left: 50px"">
            ",,278796,,241,html-keyboard-response,congruent,
46,long,,,,,,,0.0-8.0-2.68,,,,,,,279704,,242,html-keyboard-response,,
46,long,,,,,,,0.0-8.0-0.69,,,,,"<div style=""font-size:60px;"">+</div>",,280420,,243,html-keyboard-response,,
46,long,big,True,,,,preset,0.0-8.0-1.69,Big-visBig/06_02.jpg,c,Small-visSmall/06_43.jpg,619,"
            <img src=""Big-visBig/06_02.jpg"" style=""margin-right: 50px""> 
            <img src=""Small-visSmall/06_43.jpg"" style=""margin-left: 50px"">
            ",,281040,,244,html-keyboard-response,congruent,
46,long,,,,,,,0.0-8.0-2.69,,,,,,,281948,,245,html-keyboard-response,,
46,long,,,,,,,0.0-8.0-0.70,,,,,"<div style=""font-size:60px;"">+</div>",,282662,,246,html-keyboard-response,,
46,long,big,True,,,,preset,0.0-8.0-1.70,Big-visBig/23_16.jpg,c,Small-visSmall/23_70.jpg,635,"
            <img src=""Big-visBig/23_16.jpg"" style=""margin-right: 50px""> 
            <img src=""Small-visSmall/23_70.jpg"" style=""margin-left: 50px"">
            ",,283298,,247,html-keyboard-response,congruent,
46,long,,,,,,,0.0-8.0-2.70,,,,,,,284213,,248,html-keyboard-response,,
46,long,,,,,,,0.0-8.0-0.71,,,,,"<div style=""font-size:60px;"">+</div>",,284928,,249,html-keyboard-response,,
46,long,big,True,,,,preset,0.0-8.0-1.71,Big-visSmall/27_18.jpg,m,Small-visBig/27_63.jpg,814,"
            <img src=""Big-visSmall/27_18.jpg"" style=""margin-right: 50px""> 
            <img src=""Small-visBig/27_63.jpg"" style=""margin-left: 50px"">
            ",,285743,,250,html-keyboard-response,incongruent,
46,long,,,,,,,0.0-8.0-2.71,,,,,,,286659,,251,html-keyboard-response,,
46,long,,,,,,,0.0-8.0-0.72,,,,,"<div style=""font-size:60px;"">+</div>",,287374,,252,html-keyboard-response,,
46,long,big,True,,,,preset,0.0-8.0-1.72,Small-visBig/13_77.jpg,c,Big-visSmall/13_19.jpg,801,"
            <img src=""Small-visBig/13_77.jpg"" style=""margin-right: 50px""> 
            <img src=""Big-visSmall/13_19.jpg"" style=""margin-left: 50px"">
            ",,288177,,253,html-keyboard-response,incongruent,
46,long,,,,,,,0.0-8.0-2.72,,,,,,,289091,,254,html-keyboard-response,,
46,long,,,,,,,0.0-8.0-0.73,,,,,"<div style=""font-size:60px;"">+</div>",,289804,,255,html-keyboard-response,,
46,long,big,True,,,,preset,0.0-8.0-1.73,Small-visSmall/01_78.jpg,m,Big-visBig/01_07.jpg,696,"
            <img src=""Small-visSmall/01_78.jpg"" style=""margin-right: 50px""> 
            <img src=""Big-visBig/01_07.jpg"" style=""margin-left: 50px"">
            ",,290501,,256,html-keyboard-response,congruent,
46,long,,,,,,,0.0-8.0-2.73,,,,,,,291405,,257,html-keyboard-response,,
46,long,,,,,,,0.0-8.0-0.74,,,,,"<div style=""font-size:60px;"">+</div>",,292114,,258,html-keyboard-response,,
46,long,big,True,,,,preset,0.0-8.0-1.74,Small-visBig/07_51.jpg,c,Big-visSmall/07_33.jpg,1143,"
            <img src=""Small-visBig/07_51.jpg"" style=""margin-right: 50px""> 
            <img src=""Big-visSmall/07_33.jpg"" style=""margin-left: 50px"">
            ",,293258,,259,html-keyboard-response,incongruent,
46,long,,,,,,,0.0-8.0-2.74,,,,,,,294171,,260,html-keyboard-response,,
46,long,,,,,,,0.0-8.0-0.75,,,,,"<div style=""font-size:60px;"">+</div>",,294885,,261,html-keyboard-response,,
46,long,big,True,,,,preset,0.0-8.0-1.75,Big-visSmall/23_16.jpg,m,Small-visBig/23_70.jpg,719,"
            <img src=""Big-visSmall/23_16.jpg"" style=""margin-right: 50px""> 
            <img src=""Small-visBig/23_70.jpg"" style=""margin-left: 50px"">
            ",,295605,,262,html-keyboard-response,incongruent,
46,long,,,,,,,0.0-8.0-2.75,,,,,,,296520,,263,html-keyboard-response,,
46,long,,,,,,,0.0-8.0-0.76,,,,,"<div style=""font-size:60px;"">+</div>",,297236,,264,html-keyboard-response,,
46,long,big,True,,,,preset,0.0-8.0-1.76,Small-visBig/30_50.jpg,c,Big-visSmall/30_20.jpg,1205,"
            <img src=""Small-visBig/30_50.jpg"" style=""margin-right: 50px""> 
            <img src=""Big-visSmall/30_20.jpg"" style=""margin-left: 50px"">
            ",,298442,,265,html-keyboard-response,incongruent,
46,long,,,,,,,0.0-8.0-2.76,,,,,,,299356,,266,html-keyboard-response,,
46,long,,,,,,,0.0-8.0-0.77,,,,,"<div style=""font-size:60px;"">+</div>",,300072,,267,html-keyboard-response,,
46,long,big,True,,,,preset,0.0-8.0-1.77,Small-visSmall/03_57.jpg,m,Big-visBig/03_36.jpg,1330,"
            <img src=""Small-visSmall/03_57.jpg"" style=""margin-right: 50px""> 
            <img src=""Big-visBig/03_36.jpg"" style=""margin-left: 50px"">
            ",,301403,,268,html-keyboard-response,congruent,
46,long,,,,,,,0.0-8.0-2.77,,,,,,,302308,,269,html-keyboard-response,,
46,long,,,,,,,0.0-8.0-0.78,,,,,"<div style=""font-size:60px;"">+</div>",,303011,,270,html-keyboard-response,,
46,long,big,True,,,,preset,0.0-8.0-1.78,Small-visSmall/12_58.jpg,m,Big-visBig/12_13.jpg,1034,"
            <img src=""Small-visSmall/12_58.jpg"" style=""margin-right: 50px""> 
            <img src=""Big-visBig/12_13.jpg"" style=""margin-left: 50px"">
            ",,304046,,271,html-keyboard-response,congruent,
46,long,,,,,,,0.0-8.0-2.78,,,,,,,304962,,272,html-keyboard-response,,
46,long,,,,,,,0.0-8.0-0.79,,,,,"<div style=""font-size:60px;"">+</div>",,305679,,273,html-keyboard-response,,
46,long,big,True,,,,preset,0.0-8.0-1.79,Big-visBig/18_23.jpg,c,Small-visSmall/18_76.jpg,780,"
            <img src=""Big-visBig/18_23.jpg"" style=""margin-right: 50px""> 
            <img src=""Small-visSmall/18_76.jpg"" style=""margin-left: 50px"">
            ",,306460,,274,html-keyboard-response,congruent,
46,long,,,,,,,0.0-8.0-2.79,,,,,,,307370,,275,html-keyboard-response,,
46,long,,,,,,,0.0-8.0-0.80,,,,,"<div style=""font-size:60px;"">+</div>",,308083,,276,html-keyboard-response,,
46,long,big,True,,,,preset,0.0-8.0-1.80,Big-visSmall/14_34.jpg,m,Small-visBig/14_67.jpg,925,"
            <img src=""Big-visSmall/14_34.jpg"" style=""margin-right: 50px""> 
            <img src=""Small-visBig/14_67.jpg"" style=""margin-left: 50px"">
            ",,309010,,277,html-keyboard-response,incongruent,
46,long,,,,,,,0.0-8.0-2.80,,,,,,,309921,,278,html-keyboard-response,,
46,long,,,,,,,0.0-8.0-0.81,,,,,"<div style=""font-size:60px;"">+</div>",,310636,,279,html-keyboard-response,,
46,long,big,True,,,,preset,0.0-8.0-1.81,Big-visBig/13_19.jpg,c,Small-visSmall/13_77.jpg,802,"
            <img src=""Big-visBig/13_19.jpg"" style=""margin-right: 50px""> 
            <img src=""Small-visSmall/13_77.jpg"" style=""margin-left: 50px"">
            ",,311440,,280,html-keyboard-response,congruent,
46,long,,,,,,,0.0-8.0-2.81,,,,,,,312351,,281,html-keyboard-response,,
46,long,,,,,,,0.0-8.0-0.82,,,,,"<div style=""font-size:60px;"">+</div>",,313062,,282,html-keyboard-response,,
46,long,big,True,,,,preset,0.0-8.0-1.82,Big-visBig/14_34.jpg,c,Small-visSmall/14_67.jpg,787,"
            <img src=""Big-visBig/14_34.jpg"" style=""margin-right: 50px""> 
            <img src=""Small-visSmall/14_67.jpg"" style=""margin-left: 50px"">
            ",,313850,,283,html-keyboard-response,congruent,
46,long,,,,,,,0.0-8.0-2.82,,,,,,,314759,,284,html-keyboard-response,,
46,long,,,,,,,0.0-8.0-0.83,,,,,"<div style=""font-size:60px;"">+</div>",,315472,,285,html-keyboard-response,,
46,long,big,True,,,,preset,0.0-8.0-1.83,Big-visBig/12_13.jpg,c,Small-visSmall/12_58.jpg,582,"
            <img src=""Big-visBig/12_13.jpg"" style=""margin-right: 50px""> 
            <img src=""Small-visSmall/12_58.jpg"" style=""margin-left: 50px"">
            ",,316057,,286,html-keyboard-response,congruent,
46,long,,,,,,,0.0-8.0-2.83,,,,,,,316972,,287,html-keyboard-response,,
46,long,,,,,,,0.0-8.0-0.84,,,,,"<div style=""font-size:60px;"">+</div>",,317681,,288,html-keyboard-response,,
46,long,big,True,,,,preset,0.0-8.0-1.84,Small-visBig/11_71.jpg,c,Big-visSmall/11_40.jpg,674,"
            <img src=""Small-visBig/11_71.jpg"" style=""margin-right: 50px""> 
            <img src=""Big-visSmall/11_40.jpg"" style=""margin-left: 50px"">
            ",,318357,,289,html-keyboard-response,incongruent,
46,long,,,,,,,0.0-8.0-2.84,,,,,,,319266,,290,html-keyboard-response,,
46,long,,,,,,,0.0-8.0-0.85,,,,,"<div style=""font-size:60px;"">+</div>",,319974,,291,html-keyboard-response,,
46,long,big,True,,,,preset,0.0-8.0-1.85,Big-visSmall/13_19.jpg,m,Small-visBig/13_77.jpg,604,"
            <img src=""Big-visSmall/13_19.jpg"" style=""margin-right: 50px""> 
            <img src=""Small-visBig/13_77.jpg"" style=""margin-left: 50px"">
            ",,320579,,292,html-keyboard-response,incongruent,
46,long,,,,,,,0.0-8.0-2.85,,,,,,,321491,,293,html-keyboard-response,,
46,long,,,,,,,0.0-8.0-0.86,,,,,"<div style=""font-size:60px;"">+</div>",,322206,,294,html-keyboard-response,,
46,long,big,True,,,,preset,0.0-8.0-1.86,Big-visSmall/20_38.jpg,m,Small-visBig/20_79.jpg,556,"
            <img src=""Big-visSmall/20_38.jpg"" style=""margin-right: 50px""> 
            <img src=""Small-visBig/20_79.jpg"" style=""margin-left: 50px"">
            ",,322764,,295,html-keyboard-response,incongruent,
46,long,,,,,,,0.0-8.0-2.86,,,,,,,323679,,296,html-keyboard-response,,
46,long,,,,,,,0.0-8.0-0.87,,,,,"<div style=""font-size:60px;"">+</div>",,324395,,297,html-keyboard-response,,
46,long,big,True,,,,preset,0.0-8.0-1.87,Small-visBig/24_61.jpg,c,Big-visSmall/24_06.jpg,858,"
            <img src=""Small-visBig/24_61.jpg"" style=""margin-right: 50px""> 
            <img src=""Big-visSmall/24_06.jpg"" style=""margin-left: 50px"">
            ",,325254,,298,html-keyboard-response,incongruent,
46,long,,,,,,,0.0-8.0-2.87,,,,,,,326157,,299,html-keyboard-response,,
46,long,,,,,,,0.0-8.0-0.88,,,,,"<div style=""font-size:60px;"">+</div>",,326872,,300,html-keyboard-response,,
46,long,big,True,,,,preset,0.0-8.0-1.88,Big-visSmall/10_09.jpg,m,Small-visBig/10_59.jpg,575,"
            <img src=""Big-visSmall/10_09.jpg"" style=""margin-right: 50px""> 
            <img src=""Small-visBig/10_59.jpg"" style=""margin-left: 50px"">
            ",,327448,,301,html-keyboard-response,incongruent,
46,long,,,,,,,0.0-8.0-2.88,,,,,,,328357,,302,html-keyboard-response,,
46,long,,,,,,,0.0-8.0-0.89,,,,,"<div style=""font-size:60px;"">+</div>",,329073,,303,html-keyboard-response,,
46,long,big,True,,,,preset,0.0-8.0-1.89,Big-visSmall/06_02.jpg,m,Small-visBig/06_43.jpg,641,"
            <img src=""Big-visSmall/06_02.jpg"" style=""margin-right: 50px""> 
            <img src=""Small-visBig/06_43.jpg"" style=""margin-left: 50px"">
            ",,329715,,304,html-keyboard-response,incongruent,
46,long,,,,,,,0.0-8.0-2.89,,,,,,,330631,,305,html-keyboard-response,,
46,long,,,,,,,0.0-8.0-0.90,,,,,"<div style=""font-size:60px;"">+</div>",,331347,,306,html-keyboard-response,,
46,long,big,True,,,,preset,0.0-8.0-1.90,Big-visSmall/12_13.jpg,m,Small-visBig/12_58.jpg,524,"
            <img src=""Big-visSmall/12_13.jpg"" style=""margin-right: 50px""> 
            <img src=""Small-visBig/12_58.jpg"" style=""margin-left: 50px"">
            ",,331872,,307,html-keyboard-response,incongruent,
46,long,,,,,,,0.0-8.0-2.90,,,,,,,332776,,308,html-keyboard-response,,
46,long,,,,,,,0.0-8.0-0.91,,,,,"<div style=""font-size:60px;"">+</div>",,333486,,309,html-keyboard-response,,
46,long,big,True,,,,preset,0.0-8.0-1.91,Small-visBig/08_45.jpg,c,Big-visSmall/08_35.jpg,1072,"
            <img src=""Small-visBig/08_45.jpg"" style=""margin-right: 50px""> 
            <img src=""Big-visSmall/08_35.jpg"" style=""margin-left: 50px"">
            ",,334563,,310,html-keyboard-response,incongruent,
46,long,,,,,,,0.0-8.0-2.91,,,,,,,335471,,311,html-keyboard-response,,
46,long,,,,,,,0.0-8.0-0.92,,,,,"<div style=""font-size:60px;"">+</div>",,336184,,312,html-keyboard-response,,
46,long,big,True,,,,preset,0.0-8.0-1.92,Small-visBig/17_80.jpg,c,Big-visSmall/17_21.jpg,840,"
            <img src=""Small-visBig/17_80.jpg"" style=""margin-right: 50px""> 
            <img src=""Big-visSmall/17_21.jpg"" style=""margin-left: 50px"">
            ",,337026,,313,html-keyboard-response,incongruent,
46,long,,,,,,,0.0-8.0-2.92,,,,,,,337943,,314,html-keyboard-response,,
46,long,,,,,,,0.0-8.0-0.93,,,,,"<div style=""font-size:60px;"">+</div>",,338657,,315,html-keyboard-response,,
46,long,big,True,,,,preset,0.0-8.0-1.93,Small-visSmall/23_70.jpg,m,Big-visBig/23_16.jpg,1286,"
            <img src=""Small-visSmall/23_70.jpg"" style=""margin-right: 50px""> 
            <img src=""Big-visBig/23_16.jpg"" style=""margin-left: 50px"">
            ",,339945,,316,html-keyboard-response,congruent,
46,long,,,,,,,0.0-8.0-2.93,,,,,,,340846,,317,html-keyboard-response,,
46,long,,,,,,,0.0-8.0-0.94,,,,,"<div style=""font-size:60px;"">+</div>",,341557,,318,html-keyboard-response,,
46,long,big,True,,,,preset,0.0-8.0-1.94,Small-visSmall/09_64.jpg,m,Big-visBig/09_15.jpg,547,"
            <img src=""Small-visSmall/09_64.jpg"" style=""margin-right: 50px""> 
            <img src=""Big-visBig/09_15.jpg"" style=""margin-left: 50px"">
            ",,342106,,319,html-keyboard-response,congruent,
46,long,,,,,,,0.0-8.0-2.94,,,,,,,343019,,320,html-keyboard-response,,
46,long,,,,,,,0.0-8.0-0.95,,,,,"<div style=""font-size:60px;"">+</div>",,343732,,321,html-keyboard-response,,
46,long,big,True,,,,preset,0.0-8.0-1.95,Small-visSmall/14_67.jpg,m,Big-visBig/14_34.jpg,639,"
            <img src=""Small-visSmall/14_67.jpg"" style=""margin-right: 50px""> 
            <img src=""Big-visBig/14_34.jpg"" style=""margin-left: 50px"">
            ",,344372,,322,html-keyboard-response,congruent,
46,long,,,,,,,0.0-8.0-2.95,,,,,,,345273,,323,html-keyboard-response,,
46,long,,,,,,,0.0-8.0-0.96,,,,,"<div style=""font-size:60px;"">+</div>",,345976,,324,html-keyboard-response,,
46,long,big,True,,,,preset,0.0-8.0-1.96,Big-visBig/29_03.jpg,c,Small-visSmall/29_69.jpg,652,"
            <img src=""Big-visBig/29_03.jpg"" style=""margin-right: 50px""> 
            <img src=""Small-visSmall/29_69.jpg"" style=""margin-left: 50px"">
            ",,346630,,325,html-keyboard-response,congruent,
46,long,,,,,,,0.0-8.0-2.96,,,,,,,347546,,326,html-keyboard-response,,
46,long,,,,,,,0.0-8.0-0.97,,,,,"<div style=""font-size:60px;"">+</div>",,348257,,327,html-keyboard-response,,
46,long,big,True,,,,preset,0.0-8.0-1.97,Big-visSmall/21_31.jpg,m,Small-visBig/21_52.jpg,661,"
            <img src=""Big-visSmall/21_31.jpg"" style=""margin-right: 50px""> 
            <img src=""Small-visBig/21_52.jpg"" style=""margin-left: 50px"">
            ",,348919,,328,html-keyboard-response,incongruent,
46,long,,,,,,,0.0-8.0-2.97,,,,,,,349825,,329,html-keyboard-response,,
46,long,,,,,,,0.0-8.0-0.98,,,,,"<div style=""font-size:60px;"">+</div>",,350537,,330,html-keyboard-response,,
46,long,big,True,,,,preset,0.0-8.0-1.98,Small-visBig/16_73.jpg,c,Big-visSmall/16_28.jpg,666,"
            <img src=""Small-visBig/16_73.jpg"" style=""margin-right: 50px""> 
            <img src=""Big-visSmall/16_28.jpg"" style=""margin-left: 50px"">
            ",,351204,,331,html-keyboard-response,incongruent,
46,long,,,,,,,0.0-8.0-2.98,,,,,,,352115,,332,html-keyboard-response,,
46,long,,,,,,,0.0-8.0-0.99,,,,,"<div style=""font-size:60px;"">+</div>",,352828,,333,html-keyboard-response,,
46,long,big,True,,,,preset,0.0-8.0-1.99,Big-visBig/01_07.jpg,c,Small-visSmall/01_78.jpg,581,"
            <img src=""Big-visBig/01_07.jpg"" style=""margin-right: 50px""> 
            <img src=""Small-visSmall/01_78.jpg"" style=""margin-left: 50px"">
            ",,353410,,334,html-keyboard-response,congruent,
46,long,,,,,,,0.0-8.0-2.99,,,,,,,354312,,335,html-keyboard-response,,
46,long,,,,,,,0.0-8.0-0.100,,,,,"<div style=""font-size:60px;"">+</div>",,355028,,336,html-keyboard-response,,
46,long,big,True,,,,preset,0.0-8.0-1.100,Small-visSmall/30_50.jpg,m,Big-visBig/30_20.jpg,503,"
            <img src=""Small-visSmall/30_50.jpg"" style=""margin-right: 50px""> 
            <img src=""Big-visBig/30_20.jpg"" style=""margin-left: 50px"">
            ",,355532,,337,html-keyboard-response,congruent,
46,long,,,,,,,0.0-8.0-2.100,,,,,,,356442,,338,html-keyboard-response,,
46,long,,,,,,,0.0-8.0-0.101,,,,,"<div style=""font-size:60px;"">+</div>",,357156,,339,html-keyboard-response,,
46,long,big,True,,,,preset,0.0-8.0-1.101,Small-visSmall/02_44.jpg,m,Big-visBig/02_08.jpg,518,"
            <img src=""Small-visSmall/02_44.jpg"" style=""margin-right: 50px""> 
            <img src=""Big-visBig/02_08.jpg"" style=""margin-left: 50px"">
            ",,357675,,340,html-keyboard-response,congruent,
46,long,,,,,,,0.0-8.0-2.101,,,,,,,358580,,341,html-keyboard-response,,
46,long,,,,,,,0.0-8.0-0.102,,,,,"<div style=""font-size:60px;"">+</div>",,359295,,342,html-keyboard-response,,
46,long,big,True,,,,preset,0.0-8.0-1.102,Big-visBig/30_20.jpg,c,Small-visSmall/30_50.jpg,478,"
            <img src=""Big-visBig/30_20.jpg"" style=""margin-right: 50px""> 
            <img src=""Small-visSmall/30_50.jpg"" style=""margin-left: 50px"">
            ",,359775,,343,html-keyboard-response,congruent,
46,long,,,,,,,0.0-8.0-2.102,,,,,,,360684,,344,html-keyboard-response,,
46,long,,,,,,,0.0-8.0-0.103,,,,,"<div style=""font-size:60px;"">+</div>",,361397,,345,html-keyboard-response,,
46,long,big,True,,,,preset,0.0-8.0-1.103,Big-visSmall/26_32.jpg,m,Small-visBig/26_42.jpg,613,"
            <img src=""Big-visSmall/26_32.jpg"" style=""margin-right: 50px""> 
            <img src=""Small-visBig/26_42.jpg"" style=""margin-left: 50px"">
            ",,362011,,346,html-keyboard-response,incongruent,
46,long,,,,,,,0.0-8.0-2.103,,,,,,,362926,,347,html-keyboard-response,,
46,long,,,,,,,0.0-8.0-0.104,,,,,"<div style=""font-size:60px;"">+</div>",,363635,,348,html-keyboard-response,,
46,long,big,True,,,,preset,0.0-8.0-1.104,Small-visBig/25_56.jpg,c,Big-visSmall/25_10.jpg,918,"
            <img src=""Small-visBig/25_56.jpg"" style=""margin-right: 50px""> 
            <img src=""Big-visSmall/25_10.jpg"" style=""margin-left: 50px"">
            ",,364554,,349,html-keyboard-response,incongruent,
46,long,,,,,,,0.0-8.0-2.104,,,,,,,365469,,350,html-keyboard-response,,
46,long,,,,,,,0.0-8.0-0.105,,,,,"<div style=""font-size:60px;"">+</div>",,366182,,351,html-keyboard-response,,
46,long,big,True,,,,preset,0.0-8.0-1.105,Small-visBig/09_64.jpg,c,Big-visSmall/09_15.jpg,1219,"
            <img src=""Small-visBig/09_64.jpg"" style=""margin-right: 50px""> 
            <img src=""Big-visSmall/09_15.jpg"" style=""margin-left: 50px"">
            ",,367403,,352,html-keyboard-response,incongruent,
46,long,,,,,,,0.0-8.0-2.105,,,,,,,368312,,353,html-keyboard-response,,
46,long,,,,,,,0.0-8.0-0.106,,,,,"<div style=""font-size:60px;"">+</div>",,369024,,354,html-keyboard-response,,
46,long,big,True,,,,preset,0.0-8.0-1.106,Big-visSmall/18_23.jpg,m,Small-visBig/18_76.jpg,659,"
            <img src=""Big-visSmall/18_23.jpg"" style=""margin-right: 50px""> 
            <img src=""Small-visBig/18_76.jpg"" style=""margin-left: 50px"">
            ",,369684,,355,html-keyboard-response,incongruent,
46,long,,,,,,,0.0-8.0-2.106,,,,,,,370598,,356,html-keyboard-response,,
46,long,,,,,,,0.0-8.0-0.107,,,,,"<div style=""font-size:60px;"">+</div>",,371308,,357,html-keyboard-response,,
46,long,big,True,,,,preset,0.0-8.0-1.107,Big-visBig/08_35.jpg,c,Small-visSmall/08_45.jpg,559,"
            <img src=""Big-visBig/08_35.jpg"" style=""margin-right: 50px""> 
            <img src=""Small-visSmall/08_45.jpg"" style=""margin-left: 50px"">
            ",,371868,,358,html-keyboard-response,congruent,
46,long,,,,,,,0.0-8.0-2.107,,,,,,,372771,,359,html-keyboard-response,,
46,long,,,,,,,0.0-8.0-0.108,,,,,"<div style=""font-size:60px;"">+</div>",,373487,,360,html-keyboard-response,,
46,long,big,True,,,,preset,0.0-8.0-1.108,Big-visSmall/07_33.jpg,m,Small-visBig/07_51.jpg,630,"
            <img src=""Big-visSmall/07_33.jpg"" style=""margin-right: 50px""> 
            <img src=""Small-visBig/07_51.jpg"" style=""margin-left: 50px"">
            ",,374119,,361,html-keyboard-response,incongruent,
46,long,,,,,,,0.0-8.0-2.108,,,,,,,375032,,362,html-keyboard-response,,
46,long,,,,,,,0.0-8.0-0.109,,,,,"<div style=""font-size:60px;"">+</div>",,375743,,363,html-keyboard-response,,
46,long,big,True,,,,preset,0.0-8.0-1.109,Small-visSmall/20_79.jpg,m,Big-visBig/20_38.jpg,596,"
            <img src=""Small-visSmall/20_79.jpg"" style=""margin-right: 50px""> 
            <img src=""Big-visBig/20_38.jpg"" style=""margin-left: 50px"">
            ",,376340,,364,html-keyboard-response,congruent,
46,long,,,,,,,0.0-8.0-2.109,,,,,,,377246,,365,html-keyboard-response,,
46,long,,,,,,,0.0-8.0-0.110,,,,,"<div style=""font-size:60px;"">+</div>",,377961,,366,html-keyboard-response,,
46,long,big,True,,,,preset,0.0-8.0-1.110,Small-visSmall/11_71.jpg,m,Big-visBig/11_40.jpg,537,"
            <img src=""Small-visSmall/11_71.jpg"" style=""margin-right: 50px""> 
            <img src=""Big-visBig/11_40.jpg"" style=""margin-left: 50px"">
            ",,378500,,367,html-keyboard-response,congruent,
46,long,,,,,,,0.0-8.0-2.110,,,,,,,379406,,368,html-keyboard-response,,
46,long,,,,,,,0.0-8.0-0.111,,,,,"<div style=""font-size:60px;"">+</div>",,380118,,369,html-keyboard-response,,
46,long,big,True,,,,preset,0.0-8.0-1.111,Small-visSmall/18_76.jpg,m,Big-visBig/18_23.jpg,691,"
            <img src=""Small-visSmall/18_76.jpg"" style=""margin-right: 50px""> 
            <img src=""Big-visBig/18_23.jpg"" style=""margin-left: 50px"">
            ",,380810,,370,html-keyboard-response,congruent,
46,long,,,,,,,0.0-8.0-2.111,,,,,,,381717,,371,html-keyboard-response,,
46,long,,,,,,,0.0-8.0-0.112,,,,,"<div style=""font-size:60px;"">+</div>",,382430,,372,html-keyboard-response,,
46,long,big,True,,,,preset,0.0-8.0-1.112,Big-visBig/26_32.jpg,c,Small-visSmall/26_42.jpg,592,"
            <img src=""Big-visBig/26_32.jpg"" style=""margin-right: 50px""> 
            <img src=""Small-visSmall/26_42.jpg"" style=""margin-left: 50px"">
            ",,383022,,373,html-keyboard-response,congruent,
46,long,,,,,,,0.0-8.0-2.112,,,,,,,383925,,374,html-keyboard-response,,
46,long,,,,,,,0.0-8.0-0.113,,,,,"<div style=""font-size:60px;"">+</div>",,384640,,375,html-keyboard-response,,
46,long,big,True,,,,preset,0.0-8.0-1.113,Small-visSmall/19_41.jpg,m,Big-visBig/19_17.jpg,465,"
            <img src=""Small-visSmall/19_41.jpg"" style=""margin-right: 50px""> 
            <img src=""Big-visBig/19_17.jpg"" style=""margin-left: 50px"">
            ",,385106,,376,html-keyboard-response,congruent,
46,long,,,,,,,0.0-8.0-2.113,,,,,,,386020,,377,html-keyboard-response,,
46,long,,,,,,,0.0-8.0-0.114,,,,,"<div style=""font-size:60px;"">+</div>",,386732,,378,html-keyboard-response,,
46,long,big,True,,,,preset,0.0-8.0-1.114,Big-visSmall/09_15.jpg,m,Small-visBig/09_64.jpg,532,"
            <img src=""Big-visSmall/09_15.jpg"" style=""margin-right: 50px""> 
            <img src=""Small-visBig/09_64.jpg"" style=""margin-left: 50px"">
            ",,387265,,379,html-keyboard-response,incongruent,
46,long,,,,,,,0.0-8.0-2.114,,,,,,,388181,,380,html-keyboard-response,,
46,long,,,,,,,0.0-8.0-0.115,,,,,"<div style=""font-size:60px;"">+</div>",,388892,,381,html-keyboard-response,,
46,long,big,True,,,,preset,0.0-8.0-1.115,Small-visSmall/07_51.jpg,m,Big-visBig/07_33.jpg,545,"
            <img src=""Small-visSmall/07_51.jpg"" style=""margin-right: 50px""> 
            <img src=""Big-visBig/07_33.jpg"" style=""margin-left: 50px"">
            ",,389437,,382,html-keyboard-response,congruent,
46,long,,,,,,,0.0-8.0-2.115,,,,,,,390340,,383,html-keyboard-response,,
46,long,,,,,,,0.0-8.0-0.116,,,,,"<div style=""font-size:60px;"">+</div>",,391054,,384,html-keyboard-response,,
46,long,big,True,,,,preset,0.0-8.0-1.116,Big-visBig/16_28.jpg,c,Small-visSmall/16_73.jpg,549,"
            <img src=""Big-visBig/16_28.jpg"" style=""margin-right: 50px""> 
            <img src=""Small-visSmall/16_73.jpg"" style=""margin-left: 50px"">
            ",,391604,,385,html-keyboard-response,congruent,
46,long,,,,,,,0.0-8.0-2.116,,,,,,,392506,,386,html-keyboard-response,,
46,long,,,,,,,0.0-8.0-0.117,,,,,"<div style=""font-size:60px;"">+</div>",,393222,,387,html-keyboard-response,,
46,long,big,True,,,,preset,0.0-8.0-1.117,Big-visBig/22_26.jpg,c,Small-visSmall/22_65.jpg,587,"
            <img src=""Big-visBig/22_26.jpg"" style=""margin-right: 50px""> 
            <img src=""Small-visSmall/22_65.jpg"" style=""margin-left: 50px"">
            ",,393810,,388,html-keyboard-response,congruent,
46,long,,,,,,,0.0-8.0-2.117,,,,,,,394722,,389,html-keyboard-response,,
46,long,,,,,,,0.0-8.0-0.118,,,,,"<div style=""font-size:60px;"">+</div>",,395436,,390,html-keyboard-response,,
46,long,big,True,,,,preset,0.0-8.0-1.118,Small-visSmall/26_42.jpg,m,Big-visBig/26_32.jpg,590,"
            <img src=""Small-visSmall/26_42.jpg"" style=""margin-right: 50px""> 
            <img src=""Big-visBig/26_32.jpg"" style=""margin-left: 50px"">
            ",,396027,,391,html-keyboard-response,congruent,
46,long,,,,,,,0.0-8.0-2.118,,,,,,,396928,,392,html-keyboard-response,,
46,long,,,,,,,0.0-8.0-0.119,,,,,"<div style=""font-size:60px;"">+</div>",,397643,,393,html-keyboard-response,,
46,long,big,True,,,,preset,0.0-8.0-1.119,Big-visSmall/01_07.jpg,m,Small-visBig/01_78.jpg,807,"
            <img src=""Big-visSmall/01_07.jpg"" style=""margin-right: 50px""> 
            <img src=""Small-visBig/01_78.jpg"" style=""margin-left: 50px"">
            ",,398451,,394,html-keyboard-response,incongruent,
46,long,,,,,,,0.0-8.0-2.119,,,,,,,399356,,395,html-keyboard-response,,
46,long,,,,,,,0.0-9.0-0.0,, ,,74756,"<p> Great job! You are <b>25%</b> done. Take a break and press space when you are ready to keep going! </p> <br> <p>You will have a new task, so please <b> read instructions carefully. </b> </p>",,474112,,396,html-keyboard-response,,
46,long,,,,,,,0.0-10.0-0.0,, ,,16530,"<p> <b> Block 2 out of 4 (5 minutes): </b></b>Which image is <b>smaller</b>?</p><br><p>Press <b>c</b> for image on left, and <b>m</b> for image on right as quickly and accurately as possible. </p> <br> <p> Press space to continue.</p>",,490644,,397,html-keyboard-response,,
46,long,,,,,,,0.0-11.0-0.0,,,,,"<div style=""font-size:60px;"">+</div>",,491357,,398,html-keyboard-response,,
46,long,small,True,,,,preset,0.0-11.0-1.0,Big-visBig/18_23.jpg,m,Small-visSmall/18_76.jpg,711,"
            <img src=""Big-visBig/18_23.jpg"" style=""margin-right: 50px""> 
            <img src=""Small-visSmall/18_76.jpg"" style=""margin-left: 50px"">
            ",,492069,,399,html-keyboard-response,congruent,
46,long,,,,,,,0.0-11.0-2.0,,,,,,,492973,,400,html-keyboard-response,,
46,long,,,,,,,0.0-11.0-0.1,,,,,"<div style=""font-size:60px;"">+</div>",,493686,,401,html-keyboard-response,,
46,long,small,True,,,,preset,0.0-11.0-1.1,Big-visSmall/06_02.jpg,c,Small-visBig/06_43.jpg,640,"
            <img src=""Big-visSmall/06_02.jpg"" style=""margin-right: 50px""> 
            <img src=""Small-visBig/06_43.jpg"" style=""margin-left: 50px"">
            ",,494328,,402,html-keyboard-response,incongruent,
46,long,,,,,,,0.0-11.0-2.1,,,,,,,495243,,403,html-keyboard-response,,
46,long,,,,,,,0.0-11.0-0.2,,,,,"<div style=""font-size:60px;"">+</div>",,495958,,404,html-keyboard-response,,
46,long,small,True,,,,preset,0.0-11.0-1.2,Small-visSmall/16_73.jpg,c,Big-visBig/16_28.jpg,549,"
            <img src=""Small-visSmall/16_73.jpg"" style=""margin-right: 50px""> 
            <img src=""Big-visBig/16_28.jpg"" style=""margin-left: 50px"">
            ",,496509,,405,html-keyboard-response,congruent,
46,long,,,,,,,0.0-11.0-2.2,,,,,,,497414,,406,html-keyboard-response,,
46,long,,,,,,,0.0-11.0-0.3,,,,,"<div style=""font-size:60px;"">+</div>",,498129,,407,html-keyboard-response,,
46,long,small,True,,,,preset,0.0-11.0-1.3,Big-visBig/30_20.jpg,m,Small-visSmall/30_50.jpg,523,"
            <img src=""Big-visBig/30_20.jpg"" style=""margin-right: 50px""> 
            <img src=""Small-visSmall/30_50.jpg"" style=""margin-left: 50px"">
            ",,498654,,408,html-keyboard-response,congruent,
46,long,,,,,,,0.0-11.0-2.3,,,,,,,499559,,409,html-keyboard-response,,
46,long,,,,,,,0.0-11.0-0.4,,,,,"<div style=""font-size:60px;"">+</div>",,500270,,410,html-keyboard-response,,
46,long,small,True,,,,preset,0.0-11.0-1.4,Small-visBig/27_63.jpg,m,Big-visSmall/27_18.jpg,479,"
            <img src=""Small-visBig/27_63.jpg"" style=""margin-right: 50px""> 
            <img src=""Big-visSmall/27_18.jpg"" style=""margin-left: 50px"">
            ",,500750,,411,html-keyboard-response,incongruent,
46,long,,,,,,,0.0-11.0-2.4,,,,,,,501665,,412,html-keyboard-response,,
46,long,,,,,,,0.0-11.0-0.5,,,,,"<div style=""font-size:60px;"">+</div>",,502381,,413,html-keyboard-response,,
46,long,small,True,,,,preset,0.0-11.0-1.5,Small-visSmall/01_78.jpg,c,Big-visBig/01_07.jpg,520,"
            <img src=""Small-visSmall/01_78.jpg"" style=""margin-right: 50px""> 
            <img src=""Big-visBig/01_07.jpg"" style=""margin-left: 50px"">
            ",,502902,,414,html-keyboard-response,congruent,
46,long,,,,,,,0.0-11.0-2.5,,,,,,,503806,,415,html-keyboard-response,,
46,long,,,,,,,0.0-11.0-0.6,,,,,"<div style=""font-size:60px;"">+</div>",,504516,,416,html-keyboard-response,,
46,long,small,True,,,,preset,0.0-11.0-1.6,Big-visSmall/08_35.jpg,c,Small-visBig/08_45.jpg,515,"
            <img src=""Big-visSmall/08_35.jpg"" style=""margin-right: 50px""> 
            <img src=""Small-visBig/08_45.jpg"" style=""margin-left: 50px"">
            ",,505033,,417,html-keyboard-response,incongruent,
46,long,,,,,,,0.0-11.0-2.6,,,,,,,505942,,418,html-keyboard-response,,
46,long,,,,,,,0.0-11.0-0.7,,,,,"<div style=""font-size:60px;"">+</div>",,506657,,419,html-keyboard-response,,
46,long,small,True,,,,preset,0.0-11.0-1.7,Small-visSmall/03_57.jpg,c,Big-visBig/03_36.jpg,484,"
            <img src=""Small-visSmall/03_57.jpg"" style=""margin-right: 50px""> 
            <img src=""Big-visBig/03_36.jpg"" style=""margin-left: 50px"">
            ",,507147,,420,html-keyboard-response,congruent,
46,long,,,,,,,0.0-11.0-2.7,,,,,,,508050,,421,html-keyboard-response,,
46,long,,,,,,,0.0-11.0-0.8,,,,,"<div style=""font-size:60px;"">+</div>",,508764,,422,html-keyboard-response,,
46,long,small,True,,,,preset,0.0-11.0-1.8,Small-visBig/13_77.jpg,m,Big-visSmall/13_19.jpg,463,"
            <img src=""Small-visBig/13_77.jpg"" style=""margin-right: 50px""> 
            <img src=""Big-visSmall/13_19.jpg"" style=""margin-left: 50px"">
            ",,509229,,423,html-keyboard-response,incongruent,
46,long,,,,,,,0.0-11.0-2.8,,,,,,,510137,,424,html-keyboard-response,,
46,long,,,,,,,0.0-11.0-0.9,,,,,"<div style=""font-size:60px;"">+</div>",,510846,,425,html-keyboard-response,,
46,long,small,True,,,,preset,0.0-11.0-1.9,Big-visSmall/07_33.jpg,c,Small-visBig/07_51.jpg,416,"
            <img src=""Big-visSmall/07_33.jpg"" style=""margin-right: 50px""> 
            <img src=""Small-visBig/07_51.jpg"" style=""margin-left: 50px"">
            ",,511263,,426,html-keyboard-response,incongruent,
46,long,,,,,,,0.0-11.0-2.9,,,,,,,512178,,427,html-keyboard-response,,
46,long,,,,,,,0.0-11.0-0.10,,,,,"<div style=""font-size:60px;"">+</div>",,512893,,428,html-keyboard-response,,
46,long,small,True,,,,preset,0.0-11.0-1.10,Small-visSmall/09_64.jpg,c,Big-visBig/09_15.jpg,559,"
            <img src=""Small-visSmall/09_64.jpg"" style=""margin-right: 50px""> 
            <img src=""Big-visBig/09_15.jpg"" style=""margin-left: 50px"">
            ",,513453,,429,html-keyboard-response,congruent,
46,long,,,,,,,0.0-11.0-2.10,,,,,,,514365,,430,html-keyboard-response,,
46,long,,,,,,,0.0-11.0-0.11,,,,,"<div style=""font-size:60px;"">+</div>",,515079,,431,html-keyboard-response,,
46,long,small,True,,,,preset,0.0-11.0-1.11,Small-visBig/17_80.jpg,m,Big-visSmall/17_21.jpg,549,"
            <img src=""Small-visBig/17_80.jpg"" style=""margin-right: 50px""> 
            <img src=""Big-visSmall/17_21.jpg"" style=""margin-left: 50px"">
            ",,515629,,432,html-keyboard-response,incongruent,
46,long,,,,,,,0.0-11.0-2.11,,,,,,,516538,,433,html-keyboard-response,,
46,long,,,,,,,0.0-11.0-0.12,,,,,"<div style=""font-size:60px;"">+</div>",,517247,,434,html-keyboard-response,,
46,long,small,True,,,,preset,0.0-11.0-1.12,Big-visSmall/17_21.jpg,c,Small-visBig/17_80.jpg,489,"
            <img src=""Big-visSmall/17_21.jpg"" style=""margin-right: 50px""> 
            <img src=""Small-visBig/17_80.jpg"" style=""margin-left: 50px"">
            ",,517738,,435,html-keyboard-response,incongruent,
46,long,,,,,,,0.0-11.0-2.12,,,,,,,518644,,436,html-keyboard-response,,
46,long,,,,,,,0.0-11.0-0.13,,,,,"<div style=""font-size:60px;"">+</div>",,519361,,437,html-keyboard-response,,
46,long,small,True,,,,preset,0.0-11.0-1.13,Small-visBig/03_57.jpg,m,Big-visSmall/03_36.jpg,881,"
            <img src=""Small-visBig/03_57.jpg"" style=""margin-right: 50px""> 
            <img src=""Big-visSmall/03_36.jpg"" style=""margin-left: 50px"">
            ",,520243,,438,html-keyboard-response,incongruent,
46,long,,,,,,,0.0-11.0-2.13,,,,,,,521155,,439,html-keyboard-response,,
46,long,,,,,,,0.0-11.0-0.14,,,,,"<div style=""font-size:60px;"">+</div>",,521868,,440,html-keyboard-response,,
46,long,small,True,,,,preset,0.0-11.0-1.14,Big-visBig/29_03.jpg,m,Small-visSmall/29_69.jpg,638,"
            <img src=""Big-visBig/29_03.jpg"" style=""margin-right: 50px""> 
            <img src=""Small-visSmall/29_69.jpg"" style=""margin-left: 50px"">
            ",,522507,,441,html-keyboard-response,congruent,
46,long,,,,,,,0.0-11.0-2.14,,,,,,,523413,,442,html-keyboard-response,,
46,long,,,,,,,0.0-11.0-0.15,,,,,"<div style=""font-size:60px;"">+</div>",,524116,,443,html-keyboard-response,,
46,long,small,True,,,,preset,0.0-11.0-1.15,Big-visBig/26_32.jpg,m,Small-visSmall/26_42.jpg,528,"
            <img src=""Big-visBig/26_32.jpg"" style=""margin-right: 50px""> 
            <img src=""Small-visSmall/26_42.jpg"" style=""margin-left: 50px"">
            ",,524648,,444,html-keyboard-response,congruent,
46,long,,,,,,,0.0-11.0-2.15,,,,,,,525552,,445,html-keyboard-response,,
46,long,,,,,,,0.0-11.0-0.16,,,,,"<div style=""font-size:60px;"">+</div>",,526265,,446,html-keyboard-response,,
46,long,small,True,,,,preset,0.0-11.0-1.16,Small-visBig/04_48.jpg,m,Big-visSmall/04_05.jpg,827,"
            <img src=""Small-visBig/04_48.jpg"" style=""margin-right: 50px""> 
            <img src=""Big-visSmall/04_05.jpg"" style=""margin-left: 50px"">
            ",,527093,,447,html-keyboard-response,incongruent,
46,long,,,,,,,0.0-11.0-2.16,,,,,,,527994,,448,html-keyboard-response,,
46,long,,,,,,,0.0-11.0-0.17,,,,,"<div style=""font-size:60px;"">+</div>",,528709,,449,html-keyboard-response,,
46,long,small,True,,,,preset,0.0-11.0-1.17,Big-visSmall/25_10.jpg,c,Small-visBig/25_56.jpg,773,"
            <img src=""Big-visSmall/25_10.jpg"" style=""margin-right: 50px""> 
            <img src=""Small-visBig/25_56.jpg"" style=""margin-left: 50px"">
            ",,529484,,450,html-keyboard-response,incongruent,
46,long,,,,,,,0.0-11.0-2.17,,,,,,,530396,,451,html-keyboard-response,,
46,long,,,,,,,0.0-11.0-0.18,,,,,"<div style=""font-size:60px;"">+</div>",,531112,,452,html-keyboard-response,,
46,long,small,True,,,,preset,0.0-11.0-1.18,Big-visBig/25_10.jpg,m,Small-visSmall/25_56.jpg,462,"
            <img src=""Big-visBig/25_10.jpg"" style=""margin-right: 50px""> 
            <img src=""Small-visSmall/25_56.jpg"" style=""margin-left: 50px"">
            ",,531576,,453,html-keyboard-response,congruent,
46,long,,,,,,,0.0-11.0-2.18,,,,,,,532479,,454,html-keyboard-response,,
46,long,,,,,,,0.0-11.0-0.19,,,,,"<div style=""font-size:60px;"">+</div>",,533195,,455,html-keyboard-response,,
46,long,small,True,,,,preset,0.0-11.0-1.19,Small-visSmall/18_76.jpg,c,Big-visBig/18_23.jpg,442,"
            <img src=""Small-visSmall/18_76.jpg"" style=""margin-right: 50px""> 
            <img src=""Big-visBig/18_23.jpg"" style=""margin-left: 50px"">
            ",,533638,,456,html-keyboard-response,congruent,
46,long,,,,,,,0.0-11.0-2.19,,,,,,,534555,,457,html-keyboard-response,,
46,long,,,,,,,0.0-11.0-0.20,,,,,"<div style=""font-size:60px;"">+</div>",,535268,,458,html-keyboard-response,,
46,long,small,True,,,,preset,0.0-11.0-1.20,Small-visSmall/07_51.jpg,c,Big-visBig/07_33.jpg,544,"
            <img src=""Small-visSmall/07_51.jpg"" style=""margin-right: 50px""> 
            <img src=""Big-visBig/07_33.jpg"" style=""margin-left: 50px"">
            ",,535814,,459,html-keyboard-response,congruent,
46,long,,,,,,,0.0-11.0-2.20,,,,,,,536724,,460,html-keyboard-response,,
46,long,,,,,,,0.0-11.0-0.21,,,,,"<div style=""font-size:60px;"">+</div>",,537439,,461,html-keyboard-response,,
46,long,small,True,,,,preset,0.0-11.0-1.21,Big-visSmall/21_31.jpg,c,Small-visBig/21_52.jpg,543,"
            <img src=""Big-visSmall/21_31.jpg"" style=""margin-right: 50px""> 
            <img src=""Small-visBig/21_52.jpg"" style=""margin-left: 50px"">
            ",,537983,,462,html-keyboard-response,incongruent,
46,long,,,,,,,0.0-11.0-2.21,,,,,,,538890,,463,html-keyboard-response,,
46,long,,,,,,,0.0-11.0-0.22,,,,,"<div style=""font-size:60px;"">+</div>",,539592,,464,html-keyboard-response,,
46,long,small,True,,,,preset,0.0-11.0-1.22,Small-visSmall/25_56.jpg,c,Big-visBig/25_10.jpg,444,"
            <img src=""Small-visSmall/25_56.jpg"" style=""margin-right: 50px""> 
            <img src=""Big-visBig/25_10.jpg"" style=""margin-left: 50px"">
            ",,540037,,465,html-keyboard-response,congruent,
46,long,,,,,,,0.0-11.0-2.22,,,,,,,540951,,466,html-keyboard-response,,
46,long,,,,,,,0.0-11.0-0.23,,,,,"<div style=""font-size:60px;"">+</div>",,541663,,467,html-keyboard-response,,
46,long,small,True,,,,preset,0.0-11.0-1.23,Small-visSmall/13_77.jpg,c,Big-visBig/13_19.jpg,477,"
            <img src=""Small-visSmall/13_77.jpg"" style=""margin-right: 50px""> 
            <img src=""Big-visBig/13_19.jpg"" style=""margin-left: 50px"">
            ",,542141,,468,html-keyboard-response,congruent,
46,long,,,,,,,0.0-11.0-2.23,,,,,,,543042,,469,html-keyboard-response,,
46,long,,,,,,,0.0-11.0-0.24,,,,,"<div style=""font-size:60px;"">+</div>",,543752,,470,html-keyboard-response,,
46,long,small,True,,,,preset,0.0-11.0-1.24,Big-visBig/28_12.jpg,m,Small-visSmall/28_47.jpg,1289,"
            <img src=""Big-visBig/28_12.jpg"" style=""margin-right: 50px""> 
            <img src=""Small-visSmall/28_47.jpg"" style=""margin-left: 50px"">
            ",,545042,,471,html-keyboard-response,congruent,
46,long,,,,,,,0.0-11.0-2.24,,,,,,,545944,,472,html-keyboard-response,,
46,long,,,,,,,0.0-11.0-0.25,,,,,"<div style=""font-size:60px;"">+</div>",,546659,,473,html-keyboard-response,,
46,long,small,True,,,,preset,0.0-11.0-1.25,Big-visBig/12_13.jpg,m,Small-visSmall/12_58.jpg,571,"
            <img src=""Big-visBig/12_13.jpg"" style=""margin-right: 50px""> 
            <img src=""Small-visSmall/12_58.jpg"" style=""margin-left: 50px"">
            ",,547231,,474,html-keyboard-response,congruent,
46,long,,,,,,,0.0-11.0-2.25,,,,,,,548147,,475,html-keyboard-response,,
46,long,,,,,,,0.0-11.0-0.26,,,,,"<div style=""font-size:60px;"">+</div>",,548864,,476,html-keyboard-response,,
46,long,small,True,,,,preset,0.0-11.0-1.26,Big-visSmall/23_16.jpg,c,Small-visBig/23_70.jpg,645,"
            <img src=""Big-visSmall/23_16.jpg"" style=""margin-right: 50px""> 
            <img src=""Small-visBig/23_70.jpg"" style=""margin-left: 50px"">
            ",,549511,,477,html-keyboard-response,incongruent,
46,long,,,,,,,0.0-11.0-2.26,,,,,,,550412,,478,html-keyboard-response,,
46,long,,,,,,,0.0-11.0-0.27,,,,,"<div style=""font-size:60px;"">+</div>",,551126,,479,html-keyboard-response,,
46,long,small,True,,,,preset,0.0-11.0-1.27,Big-visBig/15_29.jpg,m,Small-visSmall/15_72.jpg,455,"
            <img src=""Big-visBig/15_29.jpg"" style=""margin-right: 50px""> 
            <img src=""Small-visSmall/15_72.jpg"" style=""margin-left: 50px"">
            ",,551582,,480,html-keyboard-response,congruent,
46,long,,,,,,,0.0-11.0-2.27,,,,,,,552485,,481,html-keyboard-response,,
46,long,,,,,,,0.0-11.0-0.28,,,,,"<div style=""font-size:60px;"">+</div>",,553199,,482,html-keyboard-response,,
46,long,small,True,,,,preset,0.0-11.0-1.28,Small-visSmall/22_65.jpg,c,Big-visBig/22_26.jpg,457,"
            <img src=""Small-visSmall/22_65.jpg"" style=""margin-right: 50px""> 
            <img src=""Big-visBig/22_26.jpg"" style=""margin-left: 50px"">
            ",,553658,,483,html-keyboard-response,congruent,
46,long,,,,,,,0.0-11.0-2.28,,,,,,,554569,,484,html-keyboard-response,,
46,long,,,,,,,0.0-11.0-0.29,,,,,"<div style=""font-size:60px;"">+</div>",,555282,,485,html-keyboard-response,,
46,long,small,True,,,,preset,0.0-11.0-1.29,Big-visSmall/20_38.jpg,c,Small-visBig/20_79.jpg,472,"
            <img src=""Big-visSmall/20_38.jpg"" style=""margin-right: 50px""> 
            <img src=""Small-visBig/20_79.jpg"" style=""margin-left: 50px"">
            ",,555756,,486,html-keyboard-response,incongruent,
46,long,,,,,,,0.0-11.0-2.29,,,,,,,556665,,487,html-keyboard-response,,
46,long,,,,,,,0.0-11.0-0.30,,,,,"<div style=""font-size:60px;"">+</div>",,557381,,488,html-keyboard-response,,
46,long,small,True,,,,preset,0.0-11.0-1.30,Small-visSmall/28_47.jpg,c,Big-visBig/28_12.jpg,502,"
            <img src=""Small-visSmall/28_47.jpg"" style=""margin-right: 50px""> 
            <img src=""Big-visBig/28_12.jpg"" style=""margin-left: 50px"">
            ",,557885,,489,html-keyboard-response,congruent,
46,long,,,,,,,0.0-11.0-2.30,,,,,,,558788,,490,html-keyboard-response,,
46,long,,,,,,,0.0-11.0-0.31,,,,,"<div style=""font-size:60px;"">+</div>",,559500,,491,html-keyboard-response,,
46,long,small,True,,,,preset,0.0-11.0-1.31,Small-visBig/16_73.jpg,m,Big-visSmall/16_28.jpg,343,"
            <img src=""Small-visBig/16_73.jpg"" style=""margin-right: 50px""> 
            <img src=""Big-visSmall/16_28.jpg"" style=""margin-left: 50px"">
            ",,559845,,492,html-keyboard-response,incongruent,
46,long,,,,,,,0.0-11.0-2.31,,,,,,,560749,,493,html-keyboard-response,,
46,long,,,,,,,0.0-11.0-0.32,,,,,"<div style=""font-size:60px;"">+</div>",,561460,,494,html-keyboard-response,,
46,long,small,True,,,,preset,0.0-11.0-1.32,Small-visSmall/17_80.jpg,c,Big-visBig/17_21.jpg,469,"
            <img src=""Small-visSmall/17_80.jpg"" style=""margin-right: 50px""> 
            <img src=""Big-visBig/17_21.jpg"" style=""margin-left: 50px"">
            ",,561930,,495,html-keyboard-response,congruent,
46,long,,,,,,,0.0-11.0-2.32,,,,,,,562838,,496,html-keyboard-response,,
46,long,,,,,,,0.0-11.0-0.33,,,,,"<div style=""font-size:60px;"">+</div>",,563549,,497,html-keyboard-response,,
46,long,small,True,,,,preset,0.0-11.0-1.33,Small-visSmall/26_42.jpg,c,Big-visBig/26_32.jpg,415,"
            <img src=""Small-visSmall/26_42.jpg"" style=""margin-right: 50px""> 
            <img src=""Big-visBig/26_32.jpg"" style=""margin-left: 50px"">
            ",,563966,,498,html-keyboard-response,congruent,
46,long,,,,,,,0.0-11.0-2.33,,,,,,,564868,,499,html-keyboard-response,,
46,long,,,,,,,0.0-11.0-0.34,,,,,"<div style=""font-size:60px;"">+</div>",,565581,,500,html-keyboard-response,,
46,long,small,True,,,,preset,0.0-11.0-1.34,Big-visSmall/04_05.jpg,c,Small-visBig/04_48.jpg,449,"
            <img src=""Big-visSmall/04_05.jpg"" style=""margin-right: 50px""> 
            <img src=""Small-visBig/04_48.jpg"" style=""margin-left: 50px"">
            ",,566031,,501,html-keyboard-response,incongruent,
46,long,,,,,,,0.0-11.0-2.34,,,,,,,566943,,502,html-keyboard-response,,
46,long,,,,,,,0.0-11.0-0.35,,,,,"<div style=""font-size:60px;"">+</div>",,567658,,503,html-keyboard-response,,
46,long,small,True,,,,preset,0.0-11.0-1.35,Small-visSmall/23_70.jpg,c,Big-visBig/23_16.jpg,587,"
            <img src=""Small-visSmall/23_70.jpg"" style=""margin-right: 50px""> 
            <img src=""Big-visBig/23_16.jpg"" style=""margin-left: 50px"">
            ",,568246,,504,html-keyboard-response,congruent,
46,long,,,,,,,0.0-11.0-2.35,,,,,,,569162,,505,html-keyboard-response,,
46,long,,,,,,,0.0-11.0-0.36,,,,,"<div style=""font-size:60px;"">+</div>",,569877,,506,html-keyboard-response,,
46,long,small,True,,,,preset,0.0-11.0-1.36,Big-visSmall/13_19.jpg,c,Small-visBig/13_77.jpg,549,"
            <img src=""Big-visSmall/13_19.jpg"" style=""margin-right: 50px""> 
            <img src=""Small-visBig/13_77.jpg"" style=""margin-left: 50px"">
            ",,570427,,507,html-keyboard-response,incongruent,
46,long,,,,,,,0.0-11.0-2.36,,,,,,,571339,,508,html-keyboard-response,,
46,long,,,,,,,0.0-11.0-0.37,,,,,"<div style=""font-size:60px;"">+</div>",,572054,,509,html-keyboard-response,,
46,long,small,True,,,,preset,0.0-11.0-1.37,Small-visSmall/04_48.jpg,c,Big-visBig/04_05.jpg,530,"
            <img src=""Small-visSmall/04_48.jpg"" style=""margin-right: 50px""> 
            <img src=""Big-visBig/04_05.jpg"" style=""margin-left: 50px"">
            ",,572585,,510,html-keyboard-response,congruent,
46,long,,,,,,,0.0-11.0-2.37,,,,,,,573501,,511,html-keyboard-response,,
46,long,,,,,,,0.0-11.0-0.38,,,,,"<div style=""font-size:60px;"">+</div>",,574215,,512,html-keyboard-response,,
46,long,small,True,,,,preset,0.0-11.0-1.38,Big-visSmall/10_09.jpg,c,Small-visBig/10_59.jpg,611,"
            <img src=""Big-visSmall/10_09.jpg"" style=""margin-right: 50px""> 
            <img src=""Small-visBig/10_59.jpg"" style=""margin-left: 50px"">
            ",,574827,,513,html-keyboard-response,incongruent,
46,long,,,,,,,0.0-11.0-2.38,,,,,,,575738,,514,html-keyboard-response,,
46,long,,,,,,,0.0-11.0-0.39,,,,,"<div style=""font-size:60px;"">+</div>",,576450,,515,html-keyboard-response,,
46,long,small,True,,,,preset,0.0-11.0-1.39,Small-visSmall/20_79.jpg,c,Big-visBig/20_38.jpg,444,"
            <img src=""Small-visSmall/20_79.jpg"" style=""margin-right: 50px""> 
            <img src=""Big-visBig/20_38.jpg"" style=""margin-left: 50px"">
            ",,576896,,516,html-keyboard-response,congruent,
46,long,,,,,,,0.0-11.0-2.39,,,,,,,577798,,517,html-keyboard-response,,
46,long,,,,,,,0.0-11.0-0.40,,,,,"<div style=""font-size:60px;"">+</div>",,578512,,518,html-keyboard-response,,
46,long,small,True,,,,preset,0.0-11.0-1.40,Small-visSmall/21_52.jpg,c,Big-visBig/21_31.jpg,653,"
            <img src=""Small-visSmall/21_52.jpg"" style=""margin-right: 50px""> 
            <img src=""Big-visBig/21_31.jpg"" style=""margin-left: 50px"">
            ",,579166,,519,html-keyboard-response,congruent,
46,long,,,,,,,0.0-11.0-2.40,,,,,,,580080,,520,html-keyboard-response,,
46,long,,,,,,,0.0-11.0-0.41,,,,,"<div style=""font-size:60px;"">+</div>",,580796,,521,html-keyboard-response,,
46,long,small,True,,,,preset,0.0-11.0-1.41,Big-visSmall/27_18.jpg,c,Small-visBig/27_63.jpg,777,"
            <img src=""Big-visSmall/27_18.jpg"" style=""margin-right: 50px""> 
            <img src=""Small-visBig/27_63.jpg"" style=""margin-left: 50px"">
            ",,581575,,522,html-keyboard-response,incongruent,
46,long,,,,,,,0.0-11.0-2.41,,,,,,,582487,,523,html-keyboard-response,,
46,long,,,,,,,0.0-11.0-0.42,,,,,"<div style=""font-size:60px;"">+</div>",,583199,,524,html-keyboard-response,,
46,long,small,True,,,,preset,0.0-11.0-1.42,Big-visBig/04_05.jpg,m,Small-visSmall/04_48.jpg,520,"
            <img src=""Big-visBig/04_05.jpg"" style=""margin-right: 50px""> 
            <img src=""Small-visSmall/04_48.jpg"" style=""margin-left: 50px"">
            ",,583721,,525,html-keyboard-response,congruent,
46,long,,,,,,,0.0-11.0-2.42,,,,,,,584634,,526,html-keyboard-response,,
46,long,,,,,,,0.0-11.0-0.43,,,,,"<div style=""font-size:60px;"">+</div>",,585343,,527,html-keyboard-response,,
46,long,small,True,,,,preset,0.0-11.0-1.43,Small-visBig/28_47.jpg,m,Big-visSmall/28_12.jpg,537,"
            <img src=""Small-visBig/28_47.jpg"" style=""margin-right: 50px""> 
            <img src=""Big-visSmall/28_12.jpg"" style=""margin-left: 50px"">
            ",,585882,,528,html-keyboard-response,incongruent,
46,long,,,,,,,0.0-11.0-2.43,,,,,,,586785,,529,html-keyboard-response,,
46,long,,,,,,,0.0-11.0-0.44,,,,,"<div style=""font-size:60px;"">+</div>",,587498,,530,html-keyboard-response,,
46,long,small,True,,,,preset,0.0-11.0-1.44,Big-visSmall/03_36.jpg,c,Small-visBig/03_57.jpg,575,"
            <img src=""Big-visSmall/03_36.jpg"" style=""margin-right: 50px""> 
            <img src=""Small-visBig/03_57.jpg"" style=""margin-left: 50px"">
            ",,588075,,531,html-keyboard-response,incongruent,
46,long,,,,,,,0.0-11.0-2.44,,,,,,,588989,,532,html-keyboard-response,,
46,long,,,,,,,0.0-11.0-0.45,,,,,"<div style=""font-size:60px;"">+</div>",,589706,,533,html-keyboard-response,,
46,long,small,True,,,,preset,0.0-11.0-1.45,Small-visBig/29_69.jpg,m,Big-visSmall/29_03.jpg,1246,"
            <img src=""Small-visBig/29_69.jpg"" style=""margin-right: 50px""> 
            <img src=""Big-visSmall/29_03.jpg"" style=""margin-left: 50px"">
            ",,590954,,534,html-keyboard-response,incongruent,
46,long,,,,,,,0.0-11.0-2.45,,,,,,,591869,,535,html-keyboard-response,,
46,long,,,,,,,0.0-11.0-0.46,,,,,"<div style=""font-size:60px;"">+</div>",,592582,,536,html-keyboard-response,,
46,long,small,True,,,,preset,0.0-11.0-1.46,Big-visSmall/16_28.jpg,c,Small-visBig/16_73.jpg,600,"
            <img src=""Big-visSmall/16_28.jpg"" style=""margin-right: 50px""> 
            <img src=""Small-visBig/16_73.jpg"" style=""margin-left: 50px"">
            ",,593184,,537,html-keyboard-response,incongruent,
46,long,,,,,,,0.0-11.0-2.46,,,,,,,594090,,538,html-keyboard-response,,
46,long,,,,,,,0.0-11.0-0.47,,,,,"<div style=""font-size:60px;"">+</div>",,594805,,539,html-keyboard-response,,
46,long,small,True,,,,preset,0.0-11.0-1.47,Small-visSmall/27_63.jpg,c,Big-visBig/27_18.jpg,540,"
            <img src=""Small-visSmall/27_63.jpg"" style=""margin-right: 50px""> 
            <img src=""Big-visBig/27_18.jpg"" style=""margin-left: 50px"">
            ",,595347,,540,html-keyboard-response,congruent,
46,long,,,,,,,0.0-11.0-2.47,,,,,,,596261,,541,html-keyboard-response,,
46,long,,,,,,,0.0-11.0-0.48,,,,,"<div style=""font-size:60px;"">+</div>",,596977,,542,html-keyboard-response,,
46,long,small,True,,,,preset,0.0-11.0-1.48,Small-visBig/09_64.jpg,m,Big-visSmall/09_15.jpg,563,"
            <img src=""Small-visBig/09_64.jpg"" style=""margin-right: 50px""> 
            <img src=""Big-visSmall/09_15.jpg"" style=""margin-left: 50px"">
            ",,597542,,543,html-keyboard-response,incongruent,
46,long,,,,,,,0.0-11.0-2.48,,,,,,,598456,,544,html-keyboard-response,,
46,long,,,,,,,0.0-11.0-0.49,,,,,"<div style=""font-size:60px;"">+</div>",,599167,,545,html-keyboard-response,,
46,long,small,True,,,,preset,0.0-11.0-1.49,Big-visSmall/15_29.jpg,c,Small-visBig/15_72.jpg,686,"
            <img src=""Big-visSmall/15_29.jpg"" style=""margin-right: 50px""> 
            <img src=""Small-visBig/15_72.jpg"" style=""margin-left: 50px"">
            ",,599855,,546,html-keyboard-response,incongruent,
46,long,,,,,,,0.0-11.0-2.49,,,,,,,600770,,547,html-keyboard-response,,
46,long,,,,,,,0.0-11.0-0.50,,,,,"<div style=""font-size:60px;"">+</div>",,601480,,548,html-keyboard-response,,
46,long,small,True,,,,preset,0.0-11.0-1.50,Big-visBig/14_34.jpg,m,Small-visSmall/14_67.jpg,589,"
            <img src=""Big-visBig/14_34.jpg"" style=""margin-right: 50px""> 
            <img src=""Small-visSmall/14_67.jpg"" style=""margin-left: 50px"">
            ",,602071,,549,html-keyboard-response,congruent,
46,long,,,,,,,0.0-11.0-2.50,,,,,,,602985,,550,html-keyboard-response,,
46,long,,,,,,,0.0-11.0-0.51,,,,,"<div style=""font-size:60px;"">+</div>",,603701,,551,html-keyboard-response,,
46,long,small,True,,,,preset,0.0-11.0-1.51,Small-visBig/25_56.jpg,m,Big-visSmall/25_10.jpg,547,"
            <img src=""Small-visBig/25_56.jpg"" style=""margin-right: 50px""> 
            <img src=""Big-visSmall/25_10.jpg"" style=""margin-left: 50px"">
            ",,604250,,552,html-keyboard-response,incongruent,
46,long,,,,,,,0.0-11.0-2.51,,,,,,,605159,,553,html-keyboard-response,,
46,long,,,,,,,0.0-11.0-0.52,,,,,"<div style=""font-size:60px;"">+</div>",,605867,,554,html-keyboard-response,,
46,long,small,True,,,,preset,0.0-11.0-1.52,Small-visBig/21_52.jpg,m,Big-visSmall/21_31.jpg,597,"
            <img src=""Small-visBig/21_52.jpg"" style=""margin-right: 50px""> 
            <img src=""Big-visSmall/21_31.jpg"" style=""margin-left: 50px"">
            ",,606465,,555,html-keyboard-response,incongruent,
46,long,,,,,,,0.0-11.0-2.52,,,,,,,607373,,556,html-keyboard-response,,
46,long,,,,,,,0.0-11.0-0.53,,,,,"<div style=""font-size:60px;"">+</div>",,608088,,557,html-keyboard-response,,
46,long,small,True,,,,preset,0.0-11.0-1.53,Big-visBig/06_02.jpg,m,Small-visSmall/06_43.jpg,557,"
            <img src=""Big-visBig/06_02.jpg"" style=""margin-right: 50px""> 
            <img src=""Small-visSmall/06_43.jpg"" style=""margin-left: 50px"">
            ",,608647,,558,html-keyboard-response,congruent,
46,long,,,,,,,0.0-11.0-2.53,,,,,,,609551,,559,html-keyboard-response,,
46,long,,,,,,,0.0-11.0-0.54,,,,,"<div style=""font-size:60px;"">+</div>",,610266,,560,html-keyboard-response,,
46,long,small,True,,,,preset,0.0-11.0-1.54,Small-visSmall/29_69.jpg,c,Big-visBig/29_03.jpg,567,"
            <img src=""Small-visSmall/29_69.jpg"" style=""margin-right: 50px""> 
            <img src=""Big-visBig/29_03.jpg"" style=""margin-left: 50px"">
            ",,610838,,561,html-keyboard-response,congruent,
46,long,,,,,,,0.0-11.0-2.54,,,,,,,611745,,562,html-keyboard-response,,
46,long,,,,,,,0.0-11.0-0.55,,,,,"<div style=""font-size:60px;"">+</div>",,612455,,563,html-keyboard-response,,
46,long,small,True,,,,preset,0.0-11.0-1.55,Big-visBig/08_35.jpg,m,Small-visSmall/08_45.jpg,782,"
            <img src=""Big-visBig/08_35.jpg"" style=""margin-right: 50px""> 
            <img src=""Small-visSmall/08_45.jpg"" style=""margin-left: 50px"">
            ",,613238,,564,html-keyboard-response,congruent,
46,long,,,,,,,0.0-11.0-2.55,,,,,,,614139,,565,html-keyboard-response,,
46,long,,,,,,,0.0-11.0-0.56,,,,,"<div style=""font-size:60px;"">+</div>",,614856,,566,html-keyboard-response,,
46,long,small,True,,,,preset,0.0-11.0-1.56,Small-visBig/23_70.jpg,m,Big-visSmall/23_16.jpg,815,"
            <img src=""Small-visBig/23_70.jpg"" style=""margin-right: 50px""> 
            <img src=""Big-visSmall/23_16.jpg"" style=""margin-left: 50px"">
            ",,615673,,567,html-keyboard-response,incongruent,
46,long,,,,,,,0.0-11.0-2.56,,,,,,,616582,,568,html-keyboard-response,,
46,long,,,,,,,0.0-11.0-0.57,,,,,"<div style=""font-size:60px;"">+</div>",,617295,,569,html-keyboard-response,,
46,long,small,True,,,,preset,0.0-11.0-1.57,Big-visSmall/02_08.jpg,c,Small-visBig/02_44.jpg,626,"
            <img src=""Big-visSmall/02_08.jpg"" style=""margin-right: 50px""> 
            <img src=""Small-visBig/02_44.jpg"" style=""margin-left: 50px"">
            ",,617923,,570,html-keyboard-response,incongruent,
46,long,,,,,,,0.0-11.0-2.57,,,,,,,618837,,571,html-keyboard-response,,
46,long,,,,,,,0.0-11.0-0.58,,,,,"<div style=""font-size:60px;"">+</div>",,619551,,572,html-keyboard-response,,
46,long,small,True,,,,preset,0.0-11.0-1.58,Big-visBig/16_28.jpg,m,Small-visSmall/16_73.jpg,464,"
            <img src=""Big-visBig/16_28.jpg"" style=""margin-right: 50px""> 
            <img src=""Small-visSmall/16_73.jpg"" style=""margin-left: 50px"">
            ",,620017,,573,html-keyboard-response,congruent,
46,long,,,,,,,0.0-11.0-2.58,,,,,,,620919,,574,html-keyboard-response,,
46,long,,,,,,,0.0-11.0-0.59,,,,,"<div style=""font-size:60px;"">+</div>",,621633,,575,html-keyboard-response,,
46,long,small,True,,,,preset,0.0-11.0-1.59,Small-visSmall/30_50.jpg,c,Big-visBig/30_20.jpg,442,"
            <img src=""Small-visSmall/30_50.jpg"" style=""margin-right: 50px""> 
            <img src=""Big-visBig/30_20.jpg"" style=""margin-left: 50px"">
            ",,622076,,576,html-keyboard-response,congruent,
46,long,,,,,,,0.0-11.0-2.59,,,,,,,622981,,577,html-keyboard-response,,
46,long,,,,,,,0.0-11.0-0.60,,,,,"<div style=""font-size:60px;"">+</div>",,623692,,578,html-keyboard-response,,
46,long,small,True,,,,preset,0.0-11.0-1.60,Small-visBig/24_61.jpg,m,Big-visSmall/24_06.jpg,535,"
            <img src=""Small-visBig/24_61.jpg"" style=""margin-right: 50px""> 
            <img src=""Big-visSmall/24_06.jpg"" style=""margin-left: 50px"">
            ",,624228,,579,html-keyboard-response,incongruent,
46,long,,,,,,,0.0-11.0-2.60,,,,,,,625136,,580,html-keyboard-response,,
46,long,,,,,,,0.0-11.0-0.61,,,,,"<div style=""font-size:60px;"">+</div>",,625838,,581,html-keyboard-response,,
46,long,small,True,,,,preset,0.0-11.0-1.61,Big-visSmall/30_20.jpg,c,Small-visBig/30_50.jpg,497,"
            <img src=""Big-visSmall/30_20.jpg"" style=""margin-right: 50px""> 
            <img src=""Small-visBig/30_50.jpg"" style=""margin-left: 50px"">
            ",,626336,,582,html-keyboard-response,incongruent,
46,long,,,,,,,0.0-11.0-2.61,,,,,,,627245,,583,html-keyboard-response,,
46,long,,,,,,,0.0-11.0-0.62,,,,,"<div style=""font-size:60px;"">+</div>",,627958,,584,html-keyboard-response,,
46,long,small,True,,,,preset,0.0-11.0-1.62,Big-visSmall/05_25.jpg,c,Small-visBig/05_54.jpg,474,"
            <img src=""Big-visSmall/05_25.jpg"" style=""margin-right: 50px""> 
            <img src=""Small-visBig/05_54.jpg"" style=""margin-left: 50px"">
            ",,628433,,585,html-keyboard-response,incongruent,
46,long,,,,,,,0.0-11.0-2.62,,,,,,,629342,,586,html-keyboard-response,,
46,long,,,,,,,0.0-11.0-0.63,,,,,"<div style=""font-size:60px;"">+</div>",,630056,,587,html-keyboard-response,,
46,long,small,True,,,,preset,0.0-11.0-1.63,Small-visSmall/02_44.jpg,c,Big-visBig/02_08.jpg,590,"
            <img src=""Small-visSmall/02_44.jpg"" style=""margin-right: 50px""> 
            <img src=""Big-visBig/02_08.jpg"" style=""margin-left: 50px"">
            ",,630648,,588,html-keyboard-response,congruent,
46,long,,,,,,,0.0-11.0-2.63,,,,,,,631551,,589,html-keyboard-response,,
46,long,,,,,,,0.0-11.0-0.64,,,,,"<div style=""font-size:60px;"">+</div>",,632254,,590,html-keyboard-response,,
46,long,small,True,,,,preset,0.0-11.0-1.64,Big-visSmall/19_17.jpg,c,Small-visBig/19_41.jpg,561,"
            <img src=""Big-visSmall/19_17.jpg"" style=""margin-right: 50px""> 
            <img src=""Small-visBig/19_41.jpg"" style=""margin-left: 50px"">
            ",,632817,,591,html-keyboard-response,incongruent,
46,long,,,,,,,0.0-11.0-2.64,,,,,,,633729,,592,html-keyboard-response,,
46,long,,,,,,,0.0-11.0-0.65,,,,,"<div style=""font-size:60px;"">+</div>",,634445,,593,html-keyboard-response,,
46,long,small,True,,,,preset,0.0-11.0-1.65,Small-visSmall/08_45.jpg,c,Big-visBig/08_35.jpg,617,"
            <img src=""Small-visSmall/08_45.jpg"" style=""margin-right: 50px""> 
            <img src=""Big-visBig/08_35.jpg"" style=""margin-left: 50px"">
