workerid,proliferate.condition,internal_node_id,item,item_type,response,rt,slider_start,stimulus,time_elapsed,trial_index,trial_type,error
106,critcher,0.0-0.0,,,0,4429,,"<p> By answering the following questions, you are participating in a study being performed as part of a class by cognitive scientists in the Stanford Department of Psychology. If you have questions about this research, please contact us at vero.boyce@gmail.com. You must be at least 18 years old to participate. Your participation in this research is voluntary. You may decline to answer any or all of the following questions. You may decline further participation, at any time, without adverse consequences. Your anonymity is assured; the researchers who have requested your participation will not receive any information about you other than what you provide here.</p>",4432,0,html-button-response,
106,critcher,0.0-1.0,,,0,563,,"<p> In this experiment, you will read a story about two different individuals. You will then be asked to evaluate their moral character and personality. </p><p>Please read the following story carefully. </p>",4997,1,html-button-response,
106,critcher,0.0-2.0-0.0,,moral,0,45977,,"<p>Justin and Nate were walking to separate cars in the parking lot of Andronico's, a local grocery store, where they each spotted a different lost wallet next to the cars. Upon picking up the wallet and looking inside, each found several hundred dollars in cash. Each man considered whether he should return the wallet and money to the Customer Service desk at Andronico's, or pocket the money and drive away.</p> <p> Justin saw his decision as an easy one and was <i> able to decide quickly. He did not steal the money </i> and instead left the wallet with Customer Service.</p><p> In contrast, Nate saw his decision as difficult and <i> was only able to decide after long and careful deliberation</i>. After several minutes of thinking in his car, <i> he too decided not to steal the money </i> and instead left the wallet with customer service. </i><br> </p> ",50980,2,html-button-response,
106,critcher,0.0-3.0-0.0,,manipulation_check_justin,7,13596,4,<p>How quickly did Justin make his decision?</p><br>,64580,3,html-slider-response,
106,critcher,0.0-3.0-0.1,,manipulation_check_nate,1,3406,4,<p>How quickly did Nate make his decision?</p><br>,67990,4,html-slider-response,
106,critcher,0.0-4.0-0.0,justin-conflicted,moral,7,8809,4,<p>Justin was able to decide quickly. He decided not to steal the money. </p><br><p>Do you think Justin felt conflicted when making his decision?</p><br>,76801,5,html-slider-response,
106,critcher,0.0-4.0-0.1,justin-reservations,moral,4,5000,4,<p>Justin was able to decide quickly. He decided not to steal the money. </p><br><p>Do you think Justin had reservations when making his decision?</p><br>,81804,6,html-slider-response,
106,critcher,0.0-4.0-0.2,justin-certain,moral,4,7630,4,<p>Justin was able to decide quickly. He decided not to steal the money. </p><br><p>Do you think Justin felt certain in his decision?</p><br>,89436,7,html-slider-response,
106,critcher,0.0-4.0-0.3,justin-far,moral,4,6722,4,<p>Justin was able to decide quickly. He decided not to steal the money. </p><br><p>How far do you think Justin was from choosing the alternate course of action?</p><br>,96161,8,html-slider-response,
106,critcher,0.0-4.0-0.4,justin-principles,moral,6,4735,4,<p>Justin was able to decide quickly. He decided not to steal the money. </p><br><p>Do you think Justin has good or bad moral principles?</p><br>,100899,9,html-slider-response,
106,critcher,0.0-4.0-0.5,justin-deep,moral,6,12132,4,<p>Justin was able to decide quickly. He decided not to steal the money. </p><br><p>Do you think deep down Justin has the moral principles and knowledge to do the right thing?</p><br>,113033,10,html-slider-response,
106,critcher,0.0-4.0-0.6,justin-standards,moral,6,2516,4,<p>Justin was able to decide quickly. He decided not to steal the money. </p><br><p>Do you think Justin has good or bad moral standards?</p><br>,115551,11,html-slider-response,
106,critcher,0.0-4.0-0.7,justin-calm,moral,6,7882,4,<p>Justin was able to decide quickly. He decided not to steal the money. </p><br><p>To what extent do you think Justin remained calm and emotionally contained when making his decision?</p><br>,123437,12,html-slider-response,
106,critcher,0.0-4.0-0.8,justin-upset,moral,5,8583,4,<p>Justin was able to decide quickly. He decided not to steal the money. </p><br><p>To what extent do you think Justin became upset and acted without thinking?</p><br>,132022,13,html-slider-response,
106,critcher,0.0-4.0-0.9,nate-conflicted,moral,2,17489,4,<p>Nate was only able to decide after thinking for a long time. He decided not to steal the money. </p><br><p>Do you think Nate felt conflicted when making his decision?</p><br>,149514,14,html-slider-response,
106,critcher,0.0-4.0-0.10,nate-reservations,moral,7,5457,4,<p>Nate was only able to decide after thinking for a long time. He decided not to steal the money. </p><br><p>Do you think Nate had reservations when making his decision?</p><br>,154973,15,html-slider-response,
106,critcher,0.0-4.0-0.11,nate-certain,moral,5,4218,4,<p>Nate was only able to decide after thinking for a long time. He decided not to steal the money. </p><br><p>Do you think Nate felt certain in his decision?</p><br>,159193,16,html-slider-response,
106,critcher,0.0-4.0-0.12,nate-far,moral,5,15368,4,<p>Nate was only able to decide after thinking for a long time. He decided not to steal the money. </p><br><p>How far do you think Nate was from choosing the alternate course of action?</p><br>,174563,17,html-slider-response,
106,critcher,0.0-4.0-0.13,nate-principles,moral,7,6340,4,<p>Nate was only able to decide after thinking for a long time. He decided not to steal the money. </p><br><p>Do you think Nate has good or bad moral principles?</p><br>,180905,18,html-slider-response,
106,critcher,0.0-4.0-0.14,nate-deep,moral,7,3692,4,<p>Nate was only able to decide after thinking for a long time. He decided not to steal the money. </p><br><p>Do you think deep down Nate has the moral principles and knowledge to do the right thing?</p><br>,184600,19,html-slider-response,
106,critcher,0.0-4.0-0.15,nate-standards,moral,7,2267,4,<p>Nate was only able to decide after thinking for a long time. He decided not to steal the money. </p><br><p>Do you think Nate has good or bad moral standards?</p><br>,186868,20,html-slider-response,
106,critcher,0.0-4.0-0.16,nate-calm,moral,6,3400,4,<p>Nate was only able to decide after thinking for a long time. He decided not to steal the money. </p><br><p>To what extent do you think Nate remained calm and emotionally contained when making his decision?</p><br>,190271,21,html-slider-response,
106,critcher,0.0-4.0-0.17,nate-upset,moral,1,5247,4,<p>Nate was only able to decide after thinking for a long time. He decided not to steal the money. </p><br><p>To what extent do you think Nate became upset and acted without thinking?</p><br>,195521,22,html-slider-response,
106,critcher,0.0-5.0-0.0,,manipulation_check_justin,7,11268,4,<p>How quickly did Justin make his decision?</p><br>,206792,23,html-slider-response,
106,critcher,0.0-5.0-0.1,,manipulation_check_nate,1,2499,4,<p>How quickly did Nate make his decision?</p><br>,209293,24,html-slider-response,
106,critcher,0.0-6.0,,,0,5426,,<h1>End of the experiment.</h1><h2>Many thanks for participating!</h2><p>This experiment was about how whether someone makes a decision fast or slow influences people's judgements of the morality of their decisions.</p><h1>Press continue to be redirected to Prolific. </h1>,214723,25,html-button-response,
57,critcher,0.0-0.0,,,0,3016,,"<p> By answering the following questions, you are participating in a study being performed as part of a class by cognitive scientists in the Stanford Department of Psychology. If you have questions about this research, please contact us at vero.boyce@gmail.com. You must be at least 18 years old to participate. Your participation in this research is voluntary. You may decline to answer any or all of the following questions. You may decline further participation, at any time, without adverse consequences. Your anonymity is assured; the researchers who have requested your participation will not receive any information about you other than what you provide here.</p>",3024,0,html-button-response,
57,critcher,0.0-1.0,,,0,8181,,"<p> In this experiment, you will read a story about two different individuals. You will then be asked to evaluate their moral character and personality. </p><p>Please read the following story carefully. </p>",11208,1,html-button-response,
57,critcher,0.0-2.0-0.0,,moral,0,38852,,"<p>Justin and Nate were walking to separate cars in the parking lot of Andronico's, a local grocery store, where they each spotted a different lost wallet next to the cars. Upon picking up the wallet and looking inside, each found several hundred dollars in cash. Each man considered whether he should return the wallet and money to the Customer Service desk at Andronico's, or pocket the money and drive away.</p> <p> Justin saw his decision as an easy one and was <i> able to decide quickly. He did not steal the money </i> and instead left the wallet with Customer Service.</p><p> In contrast, Nate saw his decision as difficult and <i> was only able to decide after long and careful deliberation</i>. After several minutes of thinking in his car, <i> he too decided not to steal the money </i> and instead left the wallet with customer service. </i><br> </p> ",50064,2,html-button-response,
57,critcher,0.0-3.0-0.0,,manipulation_check_justin,7,8372,4,<p>How quickly did Justin make his decision?</p><br>,58440,3,html-slider-response,
57,critcher,0.0-3.0-0.1,,manipulation_check_nate,1,2790,4,<p>How quickly did Nate make his decision?</p><br>,61232,4,html-slider-response,
57,critcher,0.0-4.0-0.0,justin-conflicted,moral,7,11136,4,<p>Justin was able to decide quickly. He decided not to steal the money. </p><br><p>Do you think Justin felt conflicted when making his decision?</p><br>,72372,5,html-slider-response,
57,critcher,0.0-4.0-0.1,justin-reservations,moral,7,6000,4,<p>Justin was able to decide quickly. He decided not to steal the money. </p><br><p>Do you think Justin had reservations when making his decision?</p><br>,78376,6,html-slider-response,
57,critcher,0.0-4.0-0.2,justin-certain,moral,1,6083,4,<p>Justin was able to decide quickly. He decided not to steal the money. </p><br><p>Do you think Justin felt certain in his decision?</p><br>,84464,7,html-slider-response,
57,critcher,0.0-4.0-0.3,justin-far,moral,1,15093,4,<p>Justin was able to decide quickly. He decided not to steal the money. </p><br><p>How far do you think Justin was from choosing the alternate course of action?</p><br>,99560,8,html-slider-response,
57,critcher,0.0-4.0-0.4,justin-principles,moral,7,3692,4,<p>Justin was able to decide quickly. He decided not to steal the money. </p><br><p>Do you think Justin has good or bad moral principles?</p><br>,103255,9,html-slider-response,
57,critcher,0.0-4.0-0.5,justin-deep,moral,7,6270,4,<p>Justin was able to decide quickly. He decided not to steal the money. </p><br><p>Do you think deep down Justin has the moral principles and knowledge to do the right thing?</p><br>,109528,10,html-slider-response,
57,critcher,0.0-4.0-0.6,justin-standards,moral,7,4702,4,<p>Justin was able to decide quickly. He decided not to steal the money. </p><br><p>Do you think Justin has good or bad moral standards?</p><br>,114231,11,html-slider-response,
57,critcher,0.0-4.0-0.7,justin-calm,moral,7,8495,4,<p>Justin was able to decide quickly. He decided not to steal the money. </p><br><p>To what extent do you think Justin remained calm and emotionally contained when making his decision?</p><br>,122728,12,html-slider-response,
57,critcher,0.0-4.0-0.8,justin-upset,moral,1,5469,4,<p>Justin was able to decide quickly. He decided not to steal the money. </p><br><p>To what extent do you think Justin became upset and acted without thinking?</p><br>,128200,13,html-slider-response,
57,critcher,0.0-4.0-0.9,nate-conflicted,moral,1,4654,4,<p>Nate was only able to decide after thinking for a long time. He decided not to steal the money. </p><br><p>Do you think Nate felt conflicted when making his decision?</p><br>,132857,14,html-slider-response,
57,critcher,0.0-4.0-0.10,nate-reservations,moral,7,4189,4,<p>Nate was only able to decide after thinking for a long time. He decided not to steal the money. </p><br><p>Do you think Nate had reservations when making his decision?</p><br>,137048,15,html-slider-response,
57,critcher,0.0-4.0-0.11,nate-certain,moral,7,5413,4,<p>Nate was only able to decide after thinking for a long time. He decided not to steal the money. </p><br><p>Do you think Nate felt certain in his decision?</p><br>,142464,16,html-slider-response,
57,critcher,0.0-4.0-0.12,nate-far,moral,7,8703,4,<p>Nate was only able to decide after thinking for a long time. He decided not to steal the money. </p><br><p>How far do you think Nate was from choosing the alternate course of action?</p><br>,151168,17,html-slider-response,
57,critcher,0.0-4.0-0.13,nate-principles,moral,4,9023,4,<p>Nate was only able to decide after thinking for a long time. He decided not to steal the money. </p><br><p>Do you think Nate has good or bad moral principles?</p><br>,160192,18,html-slider-response,
57,critcher,0.0-4.0-0.14,nate-deep,moral,5,6946,4,<p>Nate was only able to decide after thinking for a long time. He decided not to steal the money. </p><br><p>Do you think deep down Nate has the moral principles and knowledge to do the right thing?</p><br>,167139,19,html-slider-response,
57,critcher,0.0-4.0-0.15,nate-standards,moral,5,4890,4,<p>Nate was only able to decide after thinking for a long time. He decided not to steal the money. </p><br><p>Do you think Nate has good or bad moral standards?</p><br>,172032,20,html-slider-response,
57,critcher,0.0-4.0-0.16,nate-calm,moral,1,6864,4,<p>Nate was only able to decide after thinking for a long time. He decided not to steal the money. </p><br><p>To what extent do you think Nate remained calm and emotionally contained when making his decision?</p><br>,178897,21,html-slider-response,
57,critcher,0.0-4.0-0.17,nate-upset,moral,1,6698,4,<p>Nate was only able to decide after thinking for a long time. He decided not to steal the money. </p><br><p>To what extent do you think Nate became upset and acted without thinking?</p><br>,185600,22,html-slider-response,
57,critcher,0.0-5.0-0.0,,manipulation_check_justin,7,3582,4,<p>How quickly did Justin make his decision?</p><br>,189184,23,html-slider-response,
57,critcher,0.0-5.0-0.1,,manipulation_check_nate,1,2349,4,<p>How quickly did Nate make his decision?</p><br>,191536,24,html-slider-response,
57,critcher,0.0-6.0,,,0,8062,,<h1>End of the experiment.</h1><h2>Many thanks for participating!</h2><p>This experiment was about how whether someone makes a decision fast or slow influences people's judgements of the morality of their decisions.</p><h1>Press continue to be redirected to Prolific. </h1>,199600,25,html-button-response,
127,critcher,0.0-0.0,,,0,9438,,"<p> By answering the following questions, you are participating in a study being performed as part of a class by cognitive scientists in the Stanford Department of Psychology. If you have questions about this research, please contact us at vero.boyce@gmail.com. You must be at least 18 years old to participate. Your participation in this research is voluntary. You may decline to answer any or all of the following questions. You may decline further participation, at any time, without adverse consequences. Your anonymity is assured; the researchers who have requested your participation will not receive any information about you other than what you provide here.</p>",9444,0,html-button-response,
127,critcher,0.0-1.0,,,0,8490,,"<p> In this experiment, you will read a story about two different individuals. You will then be asked to evaluate their moral character and personality. </p><p>Please read the following story carefully. </p>",17940,1,html-button-response,
127,critcher,0.0-2.0-0.0,,moral,0,56757,,"<p>Justin and Nate were walking to separate cars in the parking lot of Andronico's, a local grocery store, where they each spotted a different lost wallet next to the cars. Upon picking up the wallet and looking inside, each found several hundred dollars in cash. Each man considered whether he should return the wallet and money to the Customer Service desk at Andronico's, or pocket the money and drive away.</p> <p> Justin saw his decision as an easy one and was <i> able to decide quickly. He did not steal the money </i> and instead left the wallet with Customer Service.</p><p> In contrast, Nate saw his decision as difficult and <i> was only able to decide after long and careful deliberation</i>. After several minutes of thinking in his car, <i> he too decided not to steal the money </i> and instead left the wallet with customer service. </i><br> </p> ",74704,2,html-button-response,
127,critcher,0.0-3.0-0.0,,manipulation_check_justin,7,9657,4,<p>How quickly did Justin make his decision?</p><br>,84367,3,html-slider-response,
127,critcher,0.0-3.0-0.1,,manipulation_check_nate,1,2907,4,<p>How quickly did Nate make his decision?</p><br>,87278,4,html-slider-response,
127,critcher,0.0-4.0-0.0,justin-conflicted,moral,6,16341,4,<p>Justin was able to decide quickly. He decided not to steal the money. </p><br><p>Do you think Justin felt conflicted when making his decision?</p><br>,103622,5,html-slider-response,
127,critcher,0.0-4.0-0.1,justin-reservations,moral,2,11408,4,<p>Justin was able to decide quickly. He decided not to steal the money. </p><br><p>Do you think Justin had reservations when making his decision?</p><br>,115035,6,html-slider-response,
127,critcher,0.0-4.0-0.2,justin-certain,moral,2,14503,4,<p>Justin was able to decide quickly. He decided not to steal the money. </p><br><p>Do you think Justin felt certain in his decision?</p><br>,129540,7,html-slider-response,
127,critcher,0.0-4.0-0.3,justin-far,moral,5,34355,4,<p>Justin was able to decide quickly. He decided not to steal the money. </p><br><p>How far do you think Justin was from choosing the alternate course of action?</p><br>,163898,8,html-slider-response,
127,critcher,0.0-4.0-0.4,justin-principles,moral,5,8354,4,<p>Justin was able to decide quickly. He decided not to steal the money. </p><br><p>Do you think Justin has good or bad moral principles?</p><br>,172256,9,html-slider-response,
127,critcher,0.0-4.0-0.5,justin-deep,moral,6,9250,4,<p>Justin was able to decide quickly. He decided not to steal the money. </p><br><p>Do you think deep down Justin has the moral principles and knowledge to do the right thing?</p><br>,181509,10,html-slider-response,
127,critcher,0.0-4.0-0.6,justin-standards,moral,6,5419,4,<p>Justin was able to decide quickly. He decided not to steal the money. </p><br><p>Do you think Justin has good or bad moral standards?</p><br>,186931,11,html-slider-response,
127,critcher,0.0-4.0-0.7,justin-calm,moral,7,18643,4,<p>Justin was able to decide quickly. He decided not to steal the money. </p><br><p>To what extent do you think Justin remained calm and emotionally contained when making his decision?</p><br>,205577,12,html-slider-response,
127,critcher,0.0-4.0-0.8,justin-upset,moral,5,9287,4,<p>Justin was able to decide quickly. He decided not to steal the money. </p><br><p>To what extent do you think Justin became upset and acted without thinking?</p><br>,214867,13,html-slider-response,
127,critcher,0.0-4.0-0.9,nate-conflicted,moral,2,8677,4,<p>Nate was only able to decide after thinking for a long time. He decided not to steal the money. </p><br><p>Do you think Nate felt conflicted when making his decision?</p><br>,223547,14,html-slider-response,
127,critcher,0.0-4.0-0.10,nate-reservations,moral,6,11792,4,<p>Nate was only able to decide after thinking for a long time. He decided not to steal the money. </p><br><p>Do you think Nate had reservations when making his decision?</p><br>,235341,15,html-slider-response,
127,critcher,0.0-4.0-0.11,nate-certain,moral,3,8444,4,<p>Nate was only able to decide after thinking for a long time. He decided not to steal the money. </p><br><p>Do you think Nate felt certain in his decision?</p><br>,243787,16,html-slider-response,
127,critcher,0.0-4.0-0.12,nate-far,moral,6,9863,4,<p>Nate was only able to decide after thinking for a long time. He decided not to steal the money. </p><br><p>How far do you think Nate was from choosing the alternate course of action?</p><br>,253653,17,html-slider-response,
127,critcher,0.0-4.0-0.13,nate-principles,moral,3,50439,4,<p>Nate was only able to decide after thinking for a long time. He decided not to steal the money. </p><br><p>Do you think Nate has good or bad moral principles?</p><br>,304096,18,html-slider-response,
127,critcher,0.0-4.0-0.14,nate-deep,moral,6,5861,4,<p>Nate was only able to decide after thinking for a long time. He decided not to steal the money. </p><br><p>Do you think deep down Nate has the moral principles and knowledge to do the right thing?</p><br>,309961,19,html-slider-response,
127,critcher,0.0-4.0-0.15,nate-standards,moral,5,5146,4,<p>Nate was only able to decide after thinking for a long time. He decided not to steal the money. </p><br><p>Do you think Nate has good or bad moral standards?</p><br>,315108,20,html-slider-response,
127,critcher,0.0-4.0-0.16,nate-calm,moral,2,8328,4,<p>Nate was only able to decide after thinking for a long time. He decided not to steal the money. </p><br><p>To what extent do you think Nate remained calm and emotionally contained when making his decision?</p><br>,323440,21,html-slider-response,
127,critcher,0.0-4.0-0.17,nate-upset,moral,1,7507,4,<p>Nate was only able to decide after thinking for a long time. He decided not to steal the money. </p><br><p>To what extent do you think Nate became upset and acted without thinking?</p><br>,330950,22,html-slider-response,
127,critcher,0.0-5.0-0.0,,manipulation_check_justin,7,4841,4,<p>How quickly did Justin make his decision?</p><br>,335794,23,html-slider-response,
127,critcher,0.0-5.0-0.1,,manipulation_check_nate,1,4212,4,<p>How quickly did Nate make his decision?</p><br>,340010,24,html-slider-response,
127,critcher,0.0-6.0,,,0,6820,,<h1>End of the experiment.</h1><h2>Many thanks for participating!</h2><p>This experiment was about how whether someone makes a decision fast or slow influences people's judgements of the morality of their decisions.</p><h1>Press continue to be redirected to Prolific. </h1>,346836,25,html-button-response,
103,critcher,0.0-0.0,,,0,13920,,"<p> By answering the following questions, you are participating in a study being performed as part of a class by cognitive scientists in the Stanford Department of Psychology. If you have questions about this research, please contact us at vero.boyce@gmail.com. You must be at least 18 years old to participate. Your participation in this research is voluntary. You may decline to answer any or all of the following questions. You may decline further participation, at any time, without adverse consequences. Your anonymity is assured; the researchers who have requested your participation will not receive any information about you other than what you provide here.</p>",13922,0,html-button-response,
103,critcher,0.0-1.0,,,0,6633,,"<p> In this experiment, you will read a story about two different individuals. You will then be asked to evaluate their moral character and personality. </p><p>Please read the following story carefully. </p>",20556,1,html-button-response,
103,critcher,0.0-2.0-0.0,,moral,0,69493,,"<p>Justin and Nate were walking to separate cars in the parking lot of Andronico's, a local grocery store, where they each spotted a different lost wallet next to the cars. Upon picking up the wallet and looking inside, each found several hundred dollars in cash. Each man considered whether he should return the wallet and money to the Customer Service desk at Andronico's, or pocket the money and drive away.</p> <p> Justin saw his decision as an easy one and was <i> able to decide quickly. He did not steal the money </i> and instead left the wallet with Customer Service.</p><p> In contrast, Nate saw his decision as difficult and <i> was only able to decide after long and careful deliberation</i>. After several minutes of thinking in his car, <i> he too decided not to steal the money </i> and instead left the wallet with customer service. </i><br> </p> ",90050,2,html-button-response,
103,critcher,0.0-3.0-0.0,,manipulation_check_justin,7,6838,4,<p>How quickly did Justin make his decision?</p><br>,96890,3,html-slider-response,
103,critcher,0.0-3.0-0.1,,manipulation_check_nate,1,3772,4,<p>How quickly did Nate make his decision?</p><br>,100664,4,html-slider-response,
103,critcher,0.0-4.0-0.0,justin-conflicted,moral,7,8468,4,<p>Justin was able to decide quickly. He decided not to steal the money. </p><br><p>Do you think Justin felt conflicted when making his decision?</p><br>,109133,5,html-slider-response,
103,critcher,0.0-4.0-0.1,justin-reservations,moral,2,9800,4,<p>Justin was able to decide quickly. He decided not to steal the money. </p><br><p>Do you think Justin had reservations when making his decision?</p><br>,118934,6,html-slider-response,
103,critcher,0.0-4.0-0.2,justin-certain,moral,1,7125,4,<p>Justin was able to decide quickly. He decided not to steal the money. </p><br><p>Do you think Justin felt certain in his decision?</p><br>,126060,7,html-slider-response,
103,critcher,0.0-4.0-0.3,justin-far,moral,2,19477,4,<p>Justin was able to decide quickly. He decided not to steal the money. </p><br><p>How far do you think Justin was from choosing the alternate course of action?</p><br>,145538,8,html-slider-response,
103,critcher,0.0-4.0-0.4,justin-principles,moral,7,6581,4,<p>Justin was able to decide quickly. He decided not to steal the money. </p><br><p>Do you think Justin has good or bad moral principles?</p><br>,152120,9,html-slider-response,
103,critcher,0.0-4.0-0.5,justin-deep,moral,7,23695,4,<p>Justin was able to decide quickly. He decided not to steal the money. </p><br><p>Do you think deep down Justin has the moral principles and knowledge to do the right thing?</p><br>,175816,10,html-slider-response,
103,critcher,0.0-4.0-0.6,justin-standards,moral,7,5666,4,<p>Justin was able to decide quickly. He decided not to steal the money. </p><br><p>Do you think Justin has good or bad moral standards?</p><br>,181483,11,html-slider-response,
103,critcher,0.0-4.0-0.7,justin-calm,moral,6,7392,4,<p>Justin was able to decide quickly. He decided not to steal the money. </p><br><p>To what extent do you think Justin remained calm and emotionally contained when making his decision?</p><br>,188876,12,html-slider-response,
103,critcher,0.0-4.0-0.8,justin-upset,moral,1,7102,4,<p>Justin was able to decide quickly. He decided not to steal the money. </p><br><p>To what extent do you think Justin became upset and acted without thinking?</p><br>,195979,13,html-slider-response,
103,critcher,0.0-4.0-0.9,nate-conflicted,moral,1,4669,4,<p>Nate was only able to decide after thinking for a long time. He decided not to steal the money. </p><br><p>Do you think Nate felt conflicted when making his decision?</p><br>,200649,14,html-slider-response,
103,critcher,0.0-4.0-0.10,nate-reservations,moral,7,17218,4,<p>Nate was only able to decide after thinking for a long time. He decided not to steal the money. </p><br><p>Do you think Nate had reservations when making his decision?</p><br>,217868,15,html-slider-response,
103,critcher,0.0-4.0-0.11,nate-certain,moral,5,14424,4,<p>Nate was only able to decide after thinking for a long time. He decided not to steal the money. </p><br><p>Do you think Nate felt certain in his decision?</p><br>,232293,16,html-slider-response,
103,critcher,0.0-4.0-0.12,nate-far,moral,6,22453,4,<p>Nate was only able to decide after thinking for a long time. He decided not to steal the money. </p><br><p>How far do you think Nate was from choosing the alternate course of action?</p><br>,254747,17,html-slider-response,
103,critcher,0.0-4.0-0.13,nate-principles,moral,5,7432,4,<p>Nate was only able to decide after thinking for a long time. He decided not to steal the money. </p><br><p>Do you think Nate has good or bad moral principles?</p><br>,262180,18,html-slider-response,
103,critcher,0.0-4.0-0.14,nate-deep,moral,5,5489,4,<p>Nate was only able to decide after thinking for a long time. He decided not to steal the money. </p><br><p>Do you think deep down Nate has the moral principles and knowledge to do the right thing?</p><br>,267670,19,html-slider-response,
103,critcher,0.0-4.0-0.15,nate-standards,moral,5,6634,4,<p>Nate was only able to decide after thinking for a long time. He decided not to steal the money. </p><br><p>Do you think Nate has good or bad moral standards?</p><br>,274305,20,html-slider-response,
103,critcher,0.0-4.0-0.16,nate-calm,moral,1,5978,4,<p>Nate was only able to decide after thinking for a long time. He decided not to steal the money. </p><br><p>To what extent do you think Nate remained calm and emotionally contained when making his decision?</p><br>,280284,21,html-slider-response,
103,critcher,0.0-4.0-0.17,nate-upset,moral,1,14427,4,<p>Nate was only able to decide after thinking for a long time. He decided not to steal the money. </p><br><p>To what extent do you think Nate became upset and acted without thinking?</p><br>,294712,22,html-slider-response,
103,critcher,0.0-5.0-0.0,,manipulation_check_justin,7,5996,4,<p>How quickly did Justin make his decision?</p><br>,300709,23,html-slider-response,
103,critcher,0.0-5.0-0.1,,manipulation_check_nate,1,2594,4,<p>How quickly did Nate make his decision?</p><br>,303304,24,html-slider-response,
103,critcher,0.0-6.0,,,0,4156,,<h1>End of the experiment.</h1><h2>Many thanks for participating!</h2><p>This experiment was about how whether someone makes a decision fast or slow influences people's judgements of the morality of their decisions.</p><h1>Press continue to be redirected to Prolific. </h1>,307461,25,html-button-response,
99,critcher,0.0-0.0,,,0,5717,,"<p> By answering the following questions, you are participating in a study being performed as part of a class by cognitive scientists in the Stanford Department of Psychology. If you have questions about this research, please contact us at vero.boyce@gmail.com. You must be at least 18 years old to participate. Your participation in this research is voluntary. You may decline to answer any or all of the following questions. You may decline further participation, at any time, without adverse consequences. Your anonymity is assured; the researchers who have requested your participation will not receive any information about you other than what you provide here.</p>",5729,0,html-button-response,
99,critcher,0.0-1.0,,,0,1717,,"<p> In this experiment, you will read a story about two different individuals. You will then be asked to evaluate their moral character and personality. </p><p>Please read the following story carefully. </p>",7446,1,html-button-response,
99,critcher,0.0-2.0-0.0,,moral,0,36388,,"<p>Justin and Nate were walking to separate cars in the parking lot of Andronico's, a local grocery store, where they each spotted a different lost wallet next to the cars. Upon picking up the wallet and looking inside, each found several hundred dollars in cash. Each man considered whether he should return the wallet and money to the Customer Service desk at Andronico's, or pocket the money and drive away.</p> <p> Justin saw his decision as an easy one and was <i> able to decide quickly. He did not steal the money </i> and instead left the wallet with Customer Service.</p><p> In contrast, Nate saw his decision as difficult and <i> was only able to decide after long and careful deliberation</i>. After several minutes of thinking in his car, <i> he too decided not to steal the money </i> and instead left the wallet with customer service. </i><br> </p> ",43837,2,html-button-response,
99,critcher,0.0-3.0-0.0,,manipulation_check_justin,6,3664,4,<p>How quickly did Justin make his decision?</p><br>,47505,3,html-slider-response,
99,critcher,0.0-3.0-0.1,,manipulation_check_nate,2,3688,4,<p>How quickly did Nate make his decision?</p><br>,51195,4,html-slider-response,
99,critcher,0.0-4.0-0.0,justin-conflicted,moral,5,5248,4,<p>Justin was able to decide quickly. He decided not to steal the money. </p><br><p>Do you think Justin felt conflicted when making his decision?</p><br>,56445,5,html-slider-response,
99,critcher,0.0-4.0-0.1,justin-reservations,moral,6,2594,4,<p>Justin was able to decide quickly. He decided not to steal the money. </p><br><p>Do you think Justin had reservations when making his decision?</p><br>,59040,6,html-slider-response,
99,critcher,0.0-4.0-0.2,justin-certain,moral,5,3290,4,<p>Justin was able to decide quickly. He decided not to steal the money. </p><br><p>Do you think Justin felt certain in his decision?</p><br>,62332,7,html-slider-response,
99,critcher,0.0-4.0-0.3,justin-far,moral,2,4504,4,<p>Justin was able to decide quickly. He decided not to steal the money. </p><br><p>How far do you think Justin was from choosing the alternate course of action?</p><br>,66838,8,html-slider-response,
99,critcher,0.0-4.0-0.4,justin-principles,moral,5,3728,4,<p>Justin was able to decide quickly. He decided not to steal the money. </p><br><p>Do you think Justin has good or bad moral principles?</p><br>,70568,9,html-slider-response,
99,critcher,0.0-4.0-0.5,justin-deep,moral,5,2699,4,<p>Justin was able to decide quickly. He decided not to steal the money. </p><br><p>Do you think deep down Justin has the moral principles and knowledge to do the right thing?</p><br>,73268,10,html-slider-response,
99,critcher,0.0-4.0-0.6,justin-standards,moral,3,2322,4,<p>Justin was able to decide quickly. He decided not to steal the money. </p><br><p>Do you think Justin has good or bad moral standards?</p><br>,75593,11,html-slider-response,
99,critcher,0.0-4.0-0.7,justin-calm,moral,4,2042,4,<p>Justin was able to decide quickly. He decided not to steal the money. </p><br><p>To what extent do you think Justin remained calm and emotionally contained when making his decision?</p><br>,77637,12,html-slider-response,
99,critcher,0.0-4.0-0.8,justin-upset,moral,5,21915,4,<p>Justin was able to decide quickly. He decided not to steal the money. </p><br><p>To what extent do you think Justin became upset and acted without thinking?</p><br>,99555,13,html-slider-response,
99,critcher,0.0-4.0-0.9,nate-conflicted,moral,5,3531,4,<p>Nate was only able to decide after thinking for a long time. He decided not to steal the money. </p><br><p>Do you think Nate felt conflicted when making his decision?</p><br>,103087,14,html-slider-response,
99,critcher,0.0-4.0-0.10,nate-reservations,moral,3,3756,4,<p>Nate was only able to decide after thinking for a long time. He decided not to steal the money. </p><br><p>Do you think Nate had reservations when making his decision?</p><br>,106845,15,html-slider-response,
99,critcher,0.0-4.0-0.11,nate-certain,moral,5,3036,4,<p>Nate was only able to decide after thinking for a long time. He decided not to steal the money. </p><br><p>Do you think Nate felt certain in his decision?</p><br>,109882,16,html-slider-response,
99,critcher,0.0-4.0-0.12,nate-far,moral,4,5549,4,<p>Nate was only able to decide after thinking for a long time. He decided not to steal the money. </p><br><p>How far do you think Nate was from choosing the alternate course of action?</p><br>,115432,17,html-slider-response,
99,critcher,0.0-4.0-0.13,nate-principles,moral,3,2204,4,<p>Nate was only able to decide after thinking for a long time. He decided not to steal the money. </p><br><p>Do you think Nate has good or bad moral principles?</p><br>,117637,18,html-slider-response,
99,critcher,0.0-4.0-0.14,nate-deep,moral,5,2752,4,<p>Nate was only able to decide after thinking for a long time. He decided not to steal the money. </p><br><p>Do you think deep down Nate has the moral principles and knowledge to do the right thing?</p><br>,120390,19,html-slider-response,
99,critcher,0.0-4.0-0.15,nate-standards,moral,3,2482,4,<p>Nate was only able to decide after thinking for a long time. He decided not to steal the money. </p><br><p>Do you think Nate has good or bad moral standards?</p><br>,122872,20,html-slider-response,
99,critcher,0.0-4.0-0.16,nate-calm,moral,5,2189,4,<p>Nate was only able to decide after thinking for a long time. He decided not to steal the money. </p><br><p>To what extent do you think Nate remained calm and emotionally contained when making his decision?</p><br>,125063,21,html-slider-response,
99,critcher,0.0-4.0-0.17,nate-upset,moral,5,3051,4,<p>Nate was only able to decide after thinking for a long time. He decided not to steal the money. </p><br><p>To what extent do you think Nate became upset and acted without thinking?</p><br>,128115,22,html-slider-response,
99,critcher,0.0-5.0-0.0,,manipulation_check_justin,6,4079,4,<p>How quickly did Justin make his decision?</p><br>,132195,23,html-slider-response,
99,critcher,0.0-5.0-0.1,,manipulation_check_nate,2,2901,4,<p>How quickly did Nate make his decision?</p><br>,135097,24,html-slider-response,
99,critcher,0.0-6.0,,,0,3419,,<h1>End of the experiment.</h1><h2>Many thanks for participating!</h2><p>This experiment was about how whether someone makes a decision fast or slow influences people's judgements of the morality of their decisions.</p><h1>Press continue to be redirected to Prolific. </h1>,138518,25,html-button-response,
114,critcher,0.0-0.0,,,0,17766,,"<p> By answering the following questions, you are participating in a study being performed as part of a class by cognitive scientists in the Stanford Department of Psychology. If you have questions about this research, please contact us at vero.boyce@gmail.com. You must be at least 18 years old to participate. Your participation in this research is voluntary. You may decline to answer any or all of the following questions. You may decline further participation, at any time, without adverse consequences. Your anonymity is assured; the researchers who have requested your participation will not receive any information about you other than what you provide here.</p>",17772,0,html-button-response,
114,critcher,0.0-1.0,,,0,6330,,"<p> In this experiment, you will read a story about two different individuals. You will then be asked to evaluate their moral character and personality. </p><p>Please read the following story carefully. </p>",24103,1,html-button-response,
114,critcher,0.0-2.0-0.0,,immoral,0,64733,,"<p>Justin and Nate were walking to separate cars in the parking lot of Andronico's, a local grocery store, where they each spotted a different lost wallet next to the cars. Upon picking up the wallet and looking inside, each found several hundred dollars in cash. Each man considered whether he should return the wallet and money to the Customer Service desk at Andronico's, or pocket the money and drive away.</p>  <p> Justin saw his decision as an easy one and was <i> able to decide quickly. He pocketed the money and drove off. </i></p><p> In contrast, Nate saw his decision as difficult and <i> was only able to decide after long and careful deliberation</i>. After several minutes of thinking in his car, <i> he too decided to pocket the money and drive off.</i></p>",88838,2,html-button-response,
114,critcher,0.0-3.0-0.0,,manipulation_check_justin,7,18759,4,<p>How quickly did Justin make his decision?</p><br>,107603,3,html-slider-response,
114,critcher,0.0-3.0-0.1,,manipulation_check_nate,1,9447,4,<p>How quickly did Nate make his decision?</p><br>,117053,4,html-slider-response,
114,critcher,0.0-4.0-0.0,justin-conflicted,immoral,6,11832,4,<p>Justin was able to decide quickly. He decided to pocket the money and drive off. </p><br><p>Do you think Justin felt conflicted when making his decision?</p><br>,128886,5,html-slider-response,
114,critcher,0.0-4.0-0.1,justin-reservations,immoral,1,9698,4,<p>Justin was able to decide quickly. He decided to pocket the money and drive off. </p><br><p>Do you think Justin had reservations when making his decision?</p><br>,138586,6,html-slider-response,
114,critcher,0.0-4.0-0.2,justin-certain,immoral,1,7065,4,<p>Justin was able to decide quickly. He decided to pocket the money and drive off. </p><br><p>Do you think Justin felt certain in his decision?</p><br>,145652,7,html-slider-response,
114,critcher,0.0-4.0-0.3,justin-far,immoral,1,8316,4,<p>Justin was able to decide quickly. He decided to pocket the money and drive off. </p><br><p>How far do you think Justin was from choosing the alternate course of action?</p><br>,153969,8,html-slider-response,
114,critcher,0.0-4.0-0.4,justin-principles,immoral,3,10681,4,<p>Justin was able to decide quickly. He decided to pocket the money and drive off. </p><br><p>Do you think Justin has good or bad moral principles?</p><br>,164652,9,html-slider-response,
114,critcher,0.0-4.0-0.5,justin-deep,immoral,3,11300,4,<p>Justin was able to decide quickly. He decided to pocket the money and drive off. </p><br><p>Do you think deep down Justin has the moral principles and knowledge to do the right thing?</p><br>,175953,10,html-slider-response,
114,critcher,0.0-4.0-0.6,justin-standards,immoral,3,5431,4,<p>Justin was able to decide quickly. He decided to pocket the money and drive off. </p><br><p>Do you think Justin has good or bad moral standards?</p><br>,181385,11,html-slider-response,
114,critcher,0.0-4.0-0.7,justin-calm,immoral,7,47432,4,<p>Justin was able to decide quickly. He decided to pocket the money and drive off. </p><br><p>To what extent do you think Justin remained calm and emotionally contained when making his decision?</p><br>,228818,12,html-slider-response,
114,critcher,0.0-4.0-0.8,justin-upset,immoral,7,23199,4,<p>Justin was able to decide quickly. He decided to pocket the money and drive off. </p><br><p>To what extent do you think Justin became upset and acted without thinking?</p><br>,252018,13,html-slider-response,
114,critcher,0.0-4.0-0.9,nate-conflicted,immoral,1,5432,4,<p>Nate was only able to decide after thinking for a long time. He decided to pocket the money and drive off. </p><br><p>Do you think Nate felt conflicted when making his decision?</p><br>,257452,14,html-slider-response,
114,critcher,0.0-4.0-0.10,nate-reservations,immoral,7,10815,4,<p>Nate was only able to decide after thinking for a long time. He decided to pocket the money and drive off. </p><br><p>Do you think Nate had reservations when making his decision?</p><br>,268268,15,html-slider-response,
114,critcher,0.0-4.0-0.11,nate-certain,immoral,7,5898,4,<p>Nate was only able to decide after thinking for a long time. He decided to pocket the money and drive off. </p><br><p>Do you think Nate felt certain in his decision?</p><br>,274168,16,html-slider-response,
114,critcher,0.0-4.0-0.12,nate-far,immoral,7,5531,4,<p>Nate was only able to decide after thinking for a long time. He decided to pocket the money and drive off. </p><br><p>How far do you think Nate was from choosing the alternate course of action?</p><br>,279701,17,html-slider-response,
114,critcher,0.0-4.0-0.13,nate-principles,immoral,7,4566,4,<p>Nate was only able to decide after thinking for a long time. He decided to pocket the money and drive off. </p><br><p>Do you think Nate has good or bad moral principles?</p><br>,284269,18,html-slider-response,
114,critcher,0.0-4.0-0.14,nate-deep,immoral,7,2931,4,<p>Nate was only able to decide after thinking for a long time. He decided to pocket the money and drive off. </p><br><p>Do you think deep down Nate has the moral principles and knowledge to do the right thing?</p><br>,287201,19,html-slider-response,
114,critcher,0.0-4.0-0.15,nate-standards,immoral,7,3648,4,<p>Nate was only able to decide after thinking for a long time. He decided to pocket the money and drive off. </p><br><p>Do you think Nate has good or bad moral standards?</p><br>,290851,20,html-slider-response,
114,critcher,0.0-4.0-0.16,nate-calm,immoral,1,3848,4,<p>Nate was only able to decide after thinking for a long time. He decided to pocket the money and drive off. </p><br><p>To what extent do you think Nate remained calm and emotionally contained when making his decision?</p><br>,294701,21,html-slider-response,
114,critcher,0.0-4.0-0.17,nate-upset,immoral,7,5181,4,<p>Nate was only able to decide after thinking for a long time. He decided to pocket the money and drive off. </p><br><p>To what extent do you think Nate became upset and acted without thinking?</p><br>,299884,22,html-slider-response,
114,critcher,0.0-5.0-0.0,,manipulation_check_justin,7,5647,4,<p>How quickly did Justin make his decision?</p><br>,305533,23,html-slider-response,
114,critcher,0.0-5.0-0.1,,manipulation_check_nate,1,2633,4,<p>How quickly did Nate make his decision?</p><br>,308167,24,html-slider-response,
114,critcher,0.0-6.0,,,0,8199,,<h1>End of the experiment.</h1><h2>Many thanks for participating!</h2><p>This experiment was about how whether someone makes a decision fast or slow influences people's judgements of the morality of their decisions.</p><h1>Press continue to be redirected to Prolific. </h1>,316368,25,html-button-response,
152,critcher,0.0-0.0,,,0,7764,,"<p> By answering the following questions, you are participating in a study being performed as part of a class by cognitive scientists in the Stanford Department of Psychology. If you have questions about this research, please contact us at vero.boyce@gmail.com. You must be at least 18 years old to participate. Your participation in this research is voluntary. You may decline to answer any or all of the following questions. You may decline further participation, at any time, without adverse consequences. Your anonymity is assured; the researchers who have requested your participation will not receive any information about you other than what you provide here.</p>",7772,0,html-button-response,
152,critcher,0.0-1.0,,,0,6568,,"<p> In this experiment, you will read a story about two different individuals. You will then be asked to evaluate their moral character and personality. </p><p>Please read the following story carefully. </p>",14341,1,html-button-response,
152,critcher,0.0-2.0-0.0,,immoral,0,41353,,"<p>Justin and Nate were walking to separate cars in the parking lot of Andronico's, a local grocery store, where they each spotted a different lost wallet next to the cars. Upon picking up the wallet and looking inside, each found several hundred dollars in cash. Each man considered whether he should return the wallet and money to the Customer Service desk at Andronico's, or pocket the money and drive away.</p>  <p> Justin saw his decision as an easy one and was <i> able to decide quickly. He pocketed the money and drove off. </i></p><p> In contrast, Nate saw his decision as difficult and <i> was only able to decide after long and careful deliberation</i>. After several minutes of thinking in his car, <i> he too decided to pocket the money and drive off.</i></p>",55697,2,html-button-response,
152,critcher,0.0-3.0-0.0,,manipulation_check_justin,7,15383,4,<p>How quickly did Justin make his decision?</p><br>,71081,3,html-slider-response,
152,critcher,0.0-3.0-0.1,,manipulation_check_nate,1,3955,4,<p>How quickly did Nate make his decision?</p><br>,75038,4,html-slider-response,
152,critcher,0.0-4.0-0.0,justin-conflicted,immoral,6,12780,4,<p>Justin was able to decide quickly. He decided to pocket the money and drive off. </p><br><p>Do you think Justin felt conflicted when making his decision?</p><br>,87819,5,html-slider-response,
152,critcher,0.0-4.0-0.1,justin-reservations,immoral,4,9361,4,<p>Justin was able to decide quickly. He decided to pocket the money and drive off. </p><br><p>Do you think Justin had reservations when making his decision?</p><br>,97182,6,html-slider-response,
152,critcher,0.0-4.0-0.2,justin-certain,immoral,1,6730,4,<p>Justin was able to decide quickly. He decided to pocket the money and drive off. </p><br><p>Do you think Justin felt certain in his decision?</p><br>,103913,7,html-slider-response,
152,critcher,0.0-4.0-0.3,justin-far,immoral,3,14264,4,<p>Justin was able to decide quickly. He decided to pocket the money and drive off. </p><br><p>How far do you think Justin was from choosing the alternate course of action?</p><br>,118177,8,html-slider-response,
152,critcher,0.0-4.0-0.4,justin-principles,immoral,4,9765,4,<p>Justin was able to decide quickly. He decided to pocket the money and drive off. </p><br><p>Do you think Justin has good or bad moral principles?</p><br>,127943,9,html-slider-response,
152,critcher,0.0-4.0-0.5,justin-deep,immoral,5,8753,4,<p>Justin was able to decide quickly. He decided to pocket the money and drive off. </p><br><p>Do you think deep down Justin has the moral principles and knowledge to do the right thing?</p><br>,136697,10,html-slider-response,
152,critcher,0.0-4.0-0.6,justin-standards,immoral,4,7258,4,<p>Justin was able to decide quickly. He decided to pocket the money and drive off. </p><br><p>Do you think Justin has good or bad moral standards?</p><br>,143957,11,html-slider-response,
152,critcher,0.0-4.0-0.7,justin-calm,immoral,5,10386,4,<p>Justin was able to decide quickly. He decided to pocket the money and drive off. </p><br><p>To what extent do you think Justin remained calm and emotionally contained when making his decision?</p><br>,154345,12,html-slider-response,
152,critcher,0.0-4.0-0.8,justin-upset,immoral,1,11399,4,<p>Justin was able to decide quickly. He decided to pocket the money and drive off. </p><br><p>To what extent do you think Justin became upset and acted without thinking?</p><br>,165745,13,html-slider-response,
152,critcher,0.0-4.0-0.9,nate-conflicted,immoral,7,8699,4,<p>Nate was only able to decide after thinking for a long time. He decided to pocket the money and drive off. </p><br><p>Do you think Nate felt conflicted when making his decision?</p><br>,174448,14,html-slider-response,
152,critcher,0.0-4.0-0.10,nate-reservations,immoral,7,11567,4,<p>Nate was only able to decide after thinking for a long time. He decided to pocket the money and drive off. </p><br><p>Do you think Nate had reservations when making his decision?</p><br>,186017,15,html-slider-response,
152,critcher,0.0-4.0-0.11,nate-certain,immoral,2,4486,4,<p>Nate was only able to decide after thinking for a long time. He decided to pocket the money and drive off. </p><br><p>Do you think Nate felt certain in his decision?</p><br>,190504,16,html-slider-response,
152,critcher,0.0-4.0-0.12,nate-far,immoral,6,9182,4,<p>Nate was only able to decide after thinking for a long time. He decided to pocket the money and drive off. </p><br><p>How far do you think Nate was from choosing the alternate course of action?</p><br>,199688,17,html-slider-response,
152,critcher,0.0-4.0-0.13,nate-principles,immoral,4,10028,4,<p>Nate was only able to decide after thinking for a long time. He decided to pocket the money and drive off. </p><br><p>Do you think Nate has good or bad moral principles?</p><br>,209717,18,html-slider-response,
152,critcher,0.0-4.0-0.14,nate-deep,immoral,5,5123,4,<p>Nate was only able to decide after thinking for a long time. He decided to pocket the money and drive off. </p><br><p>Do you think deep down Nate has the moral principles and knowledge to do the right thing?</p><br>,214840,19,html-slider-response,
152,critcher,0.0-4.0-0.15,nate-standards,immoral,5,4978,4,<p>Nate was only able to decide after thinking for a long time. He decided to pocket the money and drive off. </p><br><p>Do you think Nate has good or bad moral standards?</p><br>,219819,20,html-slider-response,
152,critcher,0.0-4.0-0.16,nate-calm,immoral,2,6029,4,<p>Nate was only able to decide after thinking for a long time. He decided to pocket the money and drive off. </p><br><p>To what extent do you think Nate remained calm and emotionally contained when making his decision?</p><br>,225849,21,html-slider-response,
152,critcher,0.0-4.0-0.17,nate-upset,immoral,5,4285,4,<p>Nate was only able to decide after thinking for a long time. He decided to pocket the money and drive off. </p><br><p>To what extent do you think Nate became upset and acted without thinking?</p><br>,230135,22,html-slider-response,
152,critcher,0.0-5.0-0.0,,manipulation_check_justin,7,5869,4,<p>How quickly did Justin make his decision?</p><br>,236005,23,html-slider-response,
152,critcher,0.0-5.0-0.1,,manipulation_check_nate,1,3554,4,<p>How quickly did Nate make his decision?</p><br>,239559,24,html-slider-response,
152,critcher,0.0-6.0,,,0,7353,,<h1>End of the experiment.</h1><h2>Many thanks for participating!</h2><p>This experiment was about how whether someone makes a decision fast or slow influences people's judgements of the morality of their decisions.</p><h1>Press continue to be redirected to Prolific. </h1>,246913,25,html-button-response,
81,critcher,0.0-0.0,,,0,2616,,"<p> By answering the following questions, you are participating in a study being performed as part of a class by cognitive scientists in the Stanford Department of Psychology. If you have questions about this research, please contact us at vero.boyce@gmail.com. You must be at least 18 years old to participate. Your participation in this research is voluntary. You may decline to answer any or all of the following questions. You may decline further participation, at any time, without adverse consequences. Your anonymity is assured; the researchers who have requested your participation will not receive any information about you other than what you provide here.</p>",2618,0,html-button-response,
81,critcher,0.0-1.0,,,0,5447,,"<p> In this experiment, you will read a story about two different individuals. You will then be asked to evaluate their moral character and personality. </p><p>Please read the following story carefully. </p>",8065,1,html-button-response,
81,critcher,0.0-2.0-0.0,,moral,0,36703,,"<p>Justin and Nate were walking to separate cars in the parking lot of Andronico's, a local grocery store, where they each spotted a different lost wallet next to the cars. Upon picking up the wallet and looking inside, each found several hundred dollars in cash. Each man considered whether he should return the wallet and money to the Customer Service desk at Andronico's, or pocket the money and drive away.</p> <p> Justin saw his decision as an easy one and was <i> able to decide quickly. He did not steal the money </i> and instead left the wallet with Customer Service.</p><p> In contrast, Nate saw his decision as difficult and <i> was only able to decide after long and careful deliberation</i>. After several minutes of thinking in his car, <i> he too decided not to steal the money </i> and instead left the wallet with customer service. </i><br> </p> ",44771,2,html-button-response,
81,critcher,0.0-3.0-0.0,,manipulation_check_justin,7,5054,4,<p>How quickly did Justin make his decision?</p><br>,49827,3,html-slider-response,
81,critcher,0.0-3.0-0.1,,manipulation_check_nate,1,5687,4,<p>How quickly did Nate make his decision?</p><br>,55515,4,html-slider-response,
81,critcher,0.0-4.0-0.0,justin-conflicted,moral,6,5935,4,<p>Justin was able to decide quickly. He decided not to steal the money. </p><br><p>Do you think Justin felt conflicted when making his decision?</p><br>,61452,5,html-slider-response,
81,critcher,0.0-4.0-0.1,justin-reservations,moral,2,3319,4,<p>Justin was able to decide quickly. He decided not to steal the money. </p><br><p>Do you think Justin had reservations when making his decision?</p><br>,64773,6,html-slider-response,
81,critcher,0.0-4.0-0.2,justin-certain,moral,1,3224,4,<p>Justin was able to decide quickly. He decided not to steal the money. </p><br><p>Do you think Justin felt certain in his decision?</p><br>,67997,7,html-slider-response,
81,critcher,0.0-4.0-0.3,justin-far,moral,2,8886,4,<p>Justin was able to decide quickly. He decided not to steal the money. </p><br><p>How far do you think Justin was from choosing the alternate course of action?</p><br>,76885,8,html-slider-response,
81,critcher,0.0-4.0-0.4,justin-principles,moral,7,4710,4,<p>Justin was able to decide quickly. He decided not to steal the money. </p><br><p>Do you think Justin has good or bad moral principles?</p><br>,81597,9,html-slider-response,
81,critcher,0.0-4.0-0.5,justin-deep,moral,7,8896,4,<p>Justin was able to decide quickly. He decided not to steal the money. </p><br><p>Do you think deep down Justin has the moral principles and knowledge to do the right thing?</p><br>,90494,10,html-slider-response,
81,critcher,0.0-4.0-0.6,justin-standards,moral,7,3008,4,<p>Justin was able to decide quickly. He decided not to steal the money. </p><br><p>Do you think Justin has good or bad moral standards?</p><br>,93502,11,html-slider-response,
81,critcher,0.0-4.0-0.7,justin-calm,moral,6,4263,4,<p>Justin was able to decide quickly. He decided not to steal the money. </p><br><p>To what extent do you think Justin remained calm and emotionally contained when making his decision?</p><br>,97765,12,html-slider-response,
81,critcher,0.0-4.0-0.8,justin-upset,moral,2,4055,4,<p>Justin was able to decide quickly. He decided not to steal the money. </p><br><p>To what extent do you think Justin became upset and acted without thinking?</p><br>,101822,13,html-slider-response,
81,critcher,0.0-4.0-0.9,nate-conflicted,moral,2,3543,4,<p>Nate was only able to decide after thinking for a long time. He decided not to steal the money. </p><br><p>Do you think Nate felt conflicted when making his decision?</p><br>,105366,14,html-slider-response,
81,critcher,0.0-4.0-0.10,nate-reservations,moral,2,2319,4,<p>Nate was only able to decide after thinking for a long time. He decided not to steal the money. </p><br><p>Do you think Nate had reservations when making his decision?</p><br>,107687,15,html-slider-response,
81,critcher,0.0-4.0-0.11,nate-certain,moral,3,4040,4,<p>Nate was only able to decide after thinking for a long time. He decided not to steal the money. </p><br><p>Do you think Nate felt certain in his decision?</p><br>,111728,16,html-slider-response,
81,critcher,0.0-4.0-0.12,nate-far,moral,4,6735,4,<p>Nate was only able to decide after thinking for a long time. He decided not to steal the money. </p><br><p>How far do you think Nate was from choosing the alternate course of action?</p><br>,118463,17,html-slider-response,
81,critcher,0.0-4.0-0.13,nate-principles,moral,6,2814,4,<p>Nate was only able to decide after thinking for a long time. He decided not to steal the money. </p><br><p>Do you think Nate has good or bad moral principles?</p><br>,121279,18,html-slider-response,
81,critcher,0.0-4.0-0.14,nate-deep,moral,6,2695,4,<p>Nate was only able to decide after thinking for a long time. He decided not to steal the money. </p><br><p>Do you think deep down Nate has the moral principles and knowledge to do the right thing?</p><br>,123976,19,html-slider-response,
81,critcher,0.0-4.0-0.15,nate-standards,moral,6,2655,4,<p>Nate was only able to decide after thinking for a long time. He decided not to steal the money. </p><br><p>Do you think Nate has good or bad moral standards?</p><br>,126632,20,html-slider-response,
81,critcher,0.0-4.0-0.16,nate-calm,moral,4,5031,4,<p>Nate was only able to decide after thinking for a long time. He decided not to steal the money. </p><br><p>To what extent do you think Nate remained calm and emotionally contained when making his decision?</p><br>,131664,21,html-slider-response,
81,critcher,0.0-4.0-0.17,nate-upset,moral,4,1894,4,<p>Nate was only able to decide after thinking for a long time. He decided not to steal the money. </p><br><p>To what extent do you think Nate became upset and acted without thinking?</p><br>,133560,22,html-slider-response,
81,critcher,0.0-5.0-0.0,,manipulation_check_justin,7,4479,4,<p>How quickly did Justin make his decision?</p><br>,138040,23,html-slider-response,
81,critcher,0.0-5.0-0.1,,manipulation_check_nate,2,2000,4,<p>How quickly did Nate make his decision?</p><br>,140040,24,html-slider-response,
81,critcher,0.0-6.0,,,0,2575,,<h1>End of the experiment.</h1><h2>Many thanks for participating!</h2><p>This experiment was about how whether someone makes a decision fast or slow influences people's judgements of the morality of their decisions.</p><h1>Press continue to be redirected to Prolific. </h1>,142616,25,html-button-response,
173,critcher,0.0-0.0,,,0,12427,,"<p> By answering the following questions, you are participating in a study being performed as part of a class by cognitive scientists in the Stanford Department of Psychology. If you have questions about this research, please contact us at vero.boyce@gmail.com. You must be at least 18 years old to participate. Your participation in this research is voluntary. You may decline to answer any or all of the following questions. You may decline further participation, at any time, without adverse consequences. Your anonymity is assured; the researchers who have requested your participation will not receive any information about you other than what you provide here.</p>",12429,0,html-button-response,
173,critcher,0.0-1.0,,,0,921,,"<p> In this experiment, you will read a story about two different individuals. You will then be asked to evaluate their moral character and personality. </p><p>Please read the following story carefully. </p>",13351,1,html-button-response,
173,critcher,0.0-2.0-0.0,,moral,0,37481,,"<p>Justin and Nate were walking to separate cars in the parking lot of Andronico's, a local grocery store, where they each spotted a different lost wallet next to the cars. Upon picking up the wallet and looking inside, each found several hundred dollars in cash. Each man considered whether he should return the wallet and money to the Customer Service desk at Andronico's, or pocket the money and drive away.</p> <p> Justin saw his decision as an easy one and was <i> able to decide quickly. He did not steal the money </i> and instead left the wallet with Customer Service.</p><p> In contrast, Nate saw his decision as difficult and <i> was only able to decide after long and careful deliberation</i>. After several minutes of thinking in his car, <i> he too decided not to steal the money </i> and instead left the wallet with customer service. </i><br> </p> ",50833,2,html-button-response,
173,critcher,0.0-3.0-0.0,,manipulation_check_justin,5,4481,4,<p>How quickly did Justin make his decision?</p><br>,55315,3,html-slider-response,
173,critcher,0.0-3.0-0.1,,manipulation_check_nate,4,3747,4,<p>How quickly did Nate make his decision?</p><br>,59064,4,html-slider-response,
173,critcher,0.0-4.0-0.0,justin-conflicted,moral,2,7561,4,<p>Justin was able to decide quickly. He decided not to steal the money. </p><br><p>Do you think Justin felt conflicted when making his decision?</p><br>,66626,5,html-slider-response,
173,critcher,0.0-4.0-0.1,justin-reservations,moral,1,8263,4,<p>Justin was able to decide quickly. He decided not to steal the money. </p><br><p>Do you think Justin had reservations when making his decision?</p><br>,74889,6,html-slider-response,
173,critcher,0.0-4.0-0.2,justin-certain,moral,2,6388,4,<p>Justin was able to decide quickly. He decided not to steal the money. </p><br><p>Do you think Justin felt certain in his decision?</p><br>,81278,7,html-slider-response,
173,critcher,0.0-4.0-0.3,justin-far,moral,1,8557,4,<p>Justin was able to decide quickly. He decided not to steal the money. </p><br><p>How far do you think Justin was from choosing the alternate course of action?</p><br>,89836,8,html-slider-response,
173,critcher,0.0-4.0-0.4,justin-principles,moral,4,3655,4,<p>Justin was able to decide quickly. He decided not to steal the money. </p><br><p>Do you think Justin has good or bad moral principles?</p><br>,93492,9,html-slider-response,
173,critcher,0.0-4.0-0.5,justin-deep,moral,4,4577,4,<p>Justin was able to decide quickly. He decided not to steal the money. </p><br><p>Do you think deep down Justin has the moral principles and knowledge to do the right thing?</p><br>,98070,10,html-slider-response,
173,critcher,0.0-4.0-0.6,justin-standards,moral,5,6855,4,<p>Justin was able to decide quickly. He decided not to steal the money. </p><br><p>Do you think Justin has good or bad moral standards?</p><br>,104926,11,html-slider-response,
173,critcher,0.0-4.0-0.7,justin-calm,moral,4,3527,4,<p>Justin was able to decide quickly. He decided not to steal the money. </p><br><p>To what extent do you think Justin remained calm and emotionally contained when making his decision?</p><br>,108453,12,html-slider-response,
173,critcher,0.0-4.0-0.8,justin-upset,moral,1,4609,4,<p>Justin was able to decide quickly. He decided not to steal the money. </p><br><p>To what extent do you think Justin became upset and acted without thinking?</p><br>,113063,13,html-slider-response,
173,critcher,0.0-4.0-0.9,nate-conflicted,moral,3,3987,4,<p>Nate was only able to decide after thinking for a long time. He decided not to steal the money. </p><br><p>Do you think Nate felt conflicted when making his decision?</p><br>,117051,14,html-slider-response,
173,critcher,0.0-4.0-0.10,nate-reservations,moral,5,3930,4,<p>Nate was only able to decide after thinking for a long time. He decided not to steal the money. </p><br><p>Do you think Nate had reservations when making his decision?</p><br>,120982,15,html-slider-response,
173,critcher,0.0-4.0-0.11,nate-certain,moral,5,4931,4,<p>Nate was only able to decide after thinking for a long time. He decided not to steal the money. </p><br><p>Do you think Nate felt certain in his decision?</p><br>,125914,16,html-slider-response,
173,critcher,0.0-4.0-0.12,nate-far,moral,3,7312,4,<p>Nate was only able to decide after thinking for a long time. He decided not to steal the money. </p><br><p>How far do you think Nate was from choosing the alternate course of action?</p><br>,133226,17,html-slider-response,
173,critcher,0.0-4.0-0.13,nate-principles,moral,4,7204,4,<p>Nate was only able to decide after thinking for a long time. He decided not to steal the money. </p><br><p>Do you think Nate has good or bad moral principles?</p><br>,140431,18,html-slider-response,
173,critcher,0.0-4.0-0.14,nate-deep,moral,4,6799,4,<p>Nate was only able to decide after thinking for a long time. He decided not to steal the money. </p><br><p>Do you think deep down Nate has the moral principles and knowledge to do the right thing?</p><br>,147231,19,html-slider-response,
173,critcher,0.0-4.0-0.15,nate-standards,moral,5,3341,4,<p>Nate was only able to decide after thinking for a long time. He decided not to steal the money. </p><br><p>Do you think Nate has good or bad moral standards?</p><br>,150572,20,html-slider-response,
173,critcher,0.0-4.0-0.16,nate-calm,moral,5,5553,4,<p>Nate was only able to decide after thinking for a long time. He decided not to steal the money. </p><br><p>To what extent do you think Nate remained calm and emotionally contained when making his decision?</p><br>,156125,21,html-slider-response,
173,critcher,0.0-4.0-0.17,nate-upset,moral,1,7588,4,<p>Nate was only able to decide after thinking for a long time. He decided not to steal the money. </p><br><p>To what extent do you think Nate became upset and acted without thinking?</p><br>,163714,22,html-slider-response,
173,critcher,0.0-5.0-0.0,,manipulation_check_justin,7,5327,4,<p>How quickly did Justin make his decision?</p><br>,169041,23,html-slider-response,
173,critcher,0.0-5.0-0.1,,manipulation_check_nate,6,2507,4,<p>How quickly did Nate make his decision?</p><br>,171549,24,html-slider-response,
173,critcher,0.0-6.0,,,0,2321,,<h1>End of the experiment.</h1><h2>Many thanks for participating!</h2><p>This experiment was about how whether someone makes a decision fast or slow influences people's judgements of the morality of their decisions.</p><h1>Press continue to be redirected to Prolific. </h1>,173871,25,html-button-response,
134,critcher,0.0-0.0,,,0,37047,,"<p> By answering the following questions, you are participating in a study being performed as part of a class by cognitive scientists in the Stanford Department of Psychology. If you have questions about this research, please contact us at vero.boyce@gmail.com. You must be at least 18 years old to participate. Your participation in this research is voluntary. You may decline to answer any or all of the following questions. You may decline further participation, at any time, without adverse consequences. Your anonymity is assured; the researchers who have requested your participation will not receive any information about you other than what you provide here.</p>",37050,0,html-button-response,
134,critcher,0.0-1.0,,,0,17407,,"<p> In this experiment, you will read a story about two different individuals. You will then be asked to evaluate their moral character and personality. </p><p>Please read the following story carefully. </p>",54459,1,html-button-response,
134,critcher,0.0-2.0-0.0,,immoral,0,47415,,"<p>Justin and Nate were walking to separate cars in the parking lot of Andronico's, a local grocery store, where they each spotted a different lost wallet next to the cars. Upon picking up the wallet and looking inside, each found several hundred dollars in cash. Each man considered whether he should return the wallet and money to the Customer Service desk at Andronico's, or pocket the money and drive away.</p>  <p> Justin saw his decision as an easy one and was <i> able to decide quickly. He pocketed the money and drove off. </i></p><p> In contrast, Nate saw his decision as difficult and <i> was only able to decide after long and careful deliberation</i>. After several minutes of thinking in his car, <i> he too decided to pocket the money and drive off.</i></p>",101875,2,html-button-response,
134,critcher,0.0-3.0-0.0,,manipulation_check_justin,7,12631,4,<p>How quickly did Justin make his decision?</p><br>,114507,3,html-slider-response,
134,critcher,0.0-3.0-0.1,,manipulation_check_nate,2,3878,4,<p>How quickly did Nate make his decision?</p><br>,118386,4,html-slider-response,
134,critcher,0.0-4.0-0.0,justin-conflicted,immoral,7,22256,4,<p>Justin was able to decide quickly. He decided to pocket the money and drive off. </p><br><p>Do you think Justin felt conflicted when making his decision?</p><br>,140643,5,html-slider-response,
134,critcher,0.0-4.0-0.1,justin-reservations,immoral,1,15631,4,<p>Justin was able to decide quickly. He decided to pocket the money and drive off. </p><br><p>Do you think Justin had reservations when making his decision?</p><br>,156274,6,html-slider-response,
134,critcher,0.0-4.0-0.2,justin-certain,immoral,3,15455,4,<p>Justin was able to decide quickly. He decided to pocket the money and drive off. </p><br><p>Do you think Justin felt certain in his decision?</p><br>,171731,7,html-slider-response,
134,critcher,0.0-4.0-0.3,justin-far,immoral,3,16447,4,<p>Justin was able to decide quickly. He decided to pocket the money and drive off. </p><br><p>How far do you think Justin was from choosing the alternate course of action?</p><br>,188179,8,html-slider-response,
134,critcher,0.0-4.0-0.4,justin-principles,immoral,2,8599,4,<p>Justin was able to decide quickly. He decided to pocket the money and drive off. </p><br><p>Do you think Justin has good or bad moral principles?</p><br>,196779,9,html-slider-response,
134,critcher,0.0-4.0-0.5,justin-deep,immoral,6,16039,4,<p>Justin was able to decide quickly. He decided to pocket the money and drive off. </p><br><p>Do you think deep down Justin has the moral principles and knowledge to do the right thing?</p><br>,212819,10,html-slider-response,
134,critcher,0.0-4.0-0.6,justin-standards,immoral,3,5383,4,<p>Justin was able to decide quickly. He decided to pocket the money and drive off. </p><br><p>Do you think Justin has good or bad moral standards?</p><br>,218203,11,html-slider-response,
134,critcher,0.0-4.0-0.7,justin-calm,immoral,6,52455,4,<p>Justin was able to decide quickly. He decided to pocket the money and drive off. </p><br><p>To what extent do you think Justin remained calm and emotionally contained when making his decision?</p><br>,270658,12,html-slider-response,
134,critcher,0.0-4.0-0.8,justin-upset,immoral,2,18023,4,<p>Justin was able to decide quickly. He decided to pocket the money and drive off. </p><br><p>To what extent do you think Justin became upset and acted without thinking?</p><br>,288682,13,html-slider-response,
134,critcher,0.0-4.0-0.9,nate-conflicted,immoral,4,10191,4,<p>Nate was only able to decide after thinking for a long time. He decided to pocket the money and drive off. </p><br><p>Do you think Nate felt conflicted when making his decision?</p><br>,298874,14,html-slider-response,
134,critcher,0.0-4.0-0.10,nate-reservations,immoral,6,10127,4,<p>Nate was only able to decide after thinking for a long time. He decided to pocket the money and drive off. </p><br><p>Do you think Nate had reservations when making his decision?</p><br>,309002,15,html-slider-response,
134,critcher,0.0-4.0-0.11,nate-certain,immoral,5,4183,4,<p>Nate was only able to decide after thinking for a long time. He decided to pocket the money and drive off. </p><br><p>Do you think Nate felt certain in his decision?</p><br>,313186,16,html-slider-response,
134,critcher,0.0-4.0-0.12,nate-far,immoral,6,12711,4,<p>Nate was only able to decide after thinking for a long time. He decided to pocket the money and drive off. </p><br><p>How far do you think Nate was from choosing the alternate course of action?</p><br>,325898,17,html-slider-response,
134,critcher,0.0-4.0-0.13,nate-principles,immoral,3,7807,4,<p>Nate was only able to decide after thinking for a long time. He decided to pocket the money and drive off. </p><br><p>Do you think Nate has good or bad moral principles?</p><br>,333707,18,html-slider-response,
134,critcher,0.0-4.0-0.14,nate-deep,immoral,5,6343,4,<p>Nate was only able to decide after thinking for a long time. He decided to pocket the money and drive off. </p><br><p>Do you think deep down Nate has the moral principles and knowledge to do the right thing?</p><br>,340050,19,html-slider-response,
134,critcher,0.0-4.0-0.15,nate-standards,immoral,3,5711,4,<p>Nate was only able to decide after thinking for a long time. He decided to pocket the money and drive off. </p><br><p>Do you think Nate has good or bad moral standards?</p><br>,345763,20,html-slider-response,
134,critcher,0.0-4.0-0.16,nate-calm,immoral,2,22415,4,<p>Nate was only able to decide after thinking for a long time. He decided to pocket the money and drive off. </p><br><p>To what extent do you think Nate remained calm and emotionally contained when making his decision?</p><br>,368178,21,html-slider-response,
134,critcher,0.0-4.0-0.17,nate-upset,immoral,1,19279,4,<p>Nate was only able to decide after thinking for a long time. He decided to pocket the money and drive off. </p><br><p>To what extent do you think Nate became upset and acted without thinking?</p><br>,387458,22,html-slider-response,
134,critcher,0.0-5.0-0.0,,manipulation_check_justin,7,9415,4,<p>How quickly did Justin make his decision?</p><br>,396874,23,html-slider-response,
134,critcher,0.0-5.0-0.1,,manipulation_check_nate,2,4679,4,<p>How quickly did Nate make his decision?</p><br>,401554,24,html-slider-response,
134,critcher,0.0-6.0,,,0,1479,,<h1>End of the experiment.</h1><h2>Many thanks for participating!</h2><p>This experiment was about how whether someone makes a decision fast or slow influences people's judgements of the morality of their decisions.</p><h1>Press continue to be redirected to Prolific. </h1>,403034,25,html-button-response,
138,critcher,0.0-0.0,,,0,17243,,"<p> By answering the following questions, you are participating in a study being performed as part of a class by cognitive scientists in the Stanford Department of Psychology. If you have questions about this research, please contact us at vero.boyce@gmail.com. You must be at least 18 years old to participate. Your participation in this research is voluntary. You may decline to answer any or all of the following questions. You may decline further participation, at any time, without adverse consequences. Your anonymity is assured; the researchers who have requested your participation will not receive any information about you other than what you provide here.</p>",17244,0,html-button-response,
138,critcher,0.0-1.0,,,0,7728,,"<p> In this experiment, you will read a story about two different individuals. You will then be asked to evaluate their moral character and personality. </p><p>Please read the following story carefully. </p>",24973,1,html-button-response,
138,critcher,0.0-2.0-0.0,,moral,0,24033,,"<p>Justin and Nate were walking to separate cars in the parking lot of Andronico's, a local grocery store, where they each spotted a different lost wallet next to the cars. Upon picking up the wallet and looking inside, each found several hundred dollars in cash. Each man considered whether he should return the wallet and money to the Customer Service desk at Andronico's, or pocket the money and drive away.</p> <p> Justin saw his decision as an easy one and was <i> able to decide quickly. He did not steal the money </i> and instead left the wallet with Customer Service.</p><p> In contrast, Nate saw his decision as difficult and <i> was only able to decide after long and careful deliberation</i>. After several minutes of thinking in his car, <i> he too decided not to steal the money </i> and instead left the wallet with customer service. </i><br> </p> ",49006,2,html-button-response,
138,critcher,0.0-3.0-0.0,,manipulation_check_justin,7,5373,4,<p>How quickly did Justin make his decision?</p><br>,54380,3,html-slider-response,
138,critcher,0.0-3.0-0.1,,manipulation_check_nate,1,2568,4,<p>How quickly did Nate make his decision?</p><br>,56949,4,html-slider-response,
138,critcher,0.0-4.0-0.0,justin-conflicted,moral,7,7524,4,<p>Justin was able to decide quickly. He decided not to steal the money. </p><br><p>Do you think Justin felt conflicted when making his decision?</p><br>,64474,5,html-slider-response,
138,critcher,0.0-4.0-0.1,justin-reservations,moral,1,6027,4,<p>Justin was able to decide quickly. He decided not to steal the money. </p><br><p>Do you think Justin had reservations when making his decision?</p><br>,70503,6,html-slider-response,
138,critcher,0.0-4.0-0.2,justin-certain,moral,1,3994,4,<p>Justin was able to decide quickly. He decided not to steal the money. </p><br><p>Do you think Justin felt certain in his decision?</p><br>,74498,7,html-slider-response,
138,critcher,0.0-4.0-0.3,justin-far,moral,1,4721,4,<p>Justin was able to decide quickly. He decided not to steal the money. </p><br><p>How far do you think Justin was from choosing the alternate course of action?</p><br>,79220,8,html-slider-response,
138,critcher,0.0-4.0-0.4,justin-principles,moral,7,6695,4,<p>Justin was able to decide quickly. He decided not to steal the money. </p><br><p>Do you think Justin has good or bad moral principles?</p><br>,85915,9,html-slider-response,
138,critcher,0.0-4.0-0.5,justin-deep,moral,6,7070,4,<p>Justin was able to decide quickly. He decided not to steal the money. </p><br><p>Do you think deep down Justin has the moral principles and knowledge to do the right thing?</p><br>,92986,10,html-slider-response,
138,critcher,0.0-4.0-0.6,justin-standards,moral,7,3936,4,<p>Justin was able to decide quickly. He decided not to steal the money. </p><br><p>Do you think Justin has good or bad moral standards?</p><br>,96923,11,html-slider-response,
138,critcher,0.0-4.0-0.7,justin-calm,moral,6,5344,4,<p>Justin was able to decide quickly. He decided not to steal the money. </p><br><p>To what extent do you think Justin remained calm and emotionally contained when making his decision?</p><br>,102268,12,html-slider-response,
138,critcher,0.0-4.0-0.8,justin-upset,moral,1,4034,4,<p>Justin was able to decide quickly. He decided not to steal the money. </p><br><p>To what extent do you think Justin became upset and acted without thinking?</p><br>,106303,13,html-slider-response,
138,critcher,0.0-4.0-0.9,nate-conflicted,moral,1,5162,4,<p>Nate was only able to decide after thinking for a long time. He decided not to steal the money. </p><br><p>Do you think Nate felt conflicted when making his decision?</p><br>,111466,14,html-slider-response,
138,critcher,0.0-4.0-0.10,nate-reservations,moral,6,3531,4,<p>Nate was only able to decide after thinking for a long time. He decided not to steal the money. </p><br><p>Do you think Nate had reservations when making his decision?</p><br>,114998,15,html-slider-response,
138,critcher,0.0-4.0-0.11,nate-certain,moral,5,3391,4,<p>Nate was only able to decide after thinking for a long time. He decided not to steal the money. </p><br><p>Do you think Nate felt certain in his decision?</p><br>,118389,16,html-slider-response,
138,critcher,0.0-4.0-0.12,nate-far,moral,6,3665,4,<p>Nate was only able to decide after thinking for a long time. He decided not to steal the money. </p><br><p>How far do you think Nate was from choosing the alternate course of action?</p><br>,122055,17,html-slider-response,
138,critcher,0.0-4.0-0.13,nate-principles,moral,5,3863,4,<p>Nate was only able to decide after thinking for a long time. He decided not to steal the money. </p><br><p>Do you think Nate has good or bad moral principles?</p><br>,125919,18,html-slider-response,
138,critcher,0.0-4.0-0.14,nate-deep,moral,7,4469,4,<p>Nate was only able to decide after thinking for a long time. He decided not to steal the money. </p><br><p>Do you think deep down Nate has the moral principles and knowledge to do the right thing?</p><br>,130389,19,html-slider-response,
138,critcher,0.0-4.0-0.15,nate-standards,moral,5,2875,4,<p>Nate was only able to decide after thinking for a long time. He decided not to steal the money. </p><br><p>Do you think Nate has good or bad moral standards?</p><br>,133264,20,html-slider-response,
138,critcher,0.0-4.0-0.16,nate-calm,moral,3,3447,4,<p>Nate was only able to decide after thinking for a long time. He decided not to steal the money. </p><br><p>To what extent do you think Nate remained calm and emotionally contained when making his decision?</p><br>,136712,21,html-slider-response,
138,critcher,0.0-4.0-0.17,nate-upset,moral,1,4397,4,<p>Nate was only able to decide after thinking for a long time. He decided not to steal the money. </p><br><p>To what extent do you think Nate became upset and acted without thinking?</p><br>,141109,22,html-slider-response,
138,critcher,0.0-5.0-0.0,,manipulation_check_justin,7,3296,4,<p>How quickly did Justin make his decision?</p><br>,144406,23,html-slider-response,
138,critcher,0.0-5.0-0.1,,manipulation_check_nate,1,1618,4,<p>How quickly did Nate make his decision?</p><br>,146025,24,html-slider-response,
138,critcher,0.0-6.0,,,0,3662,,<h1>End of the experiment.</h1><h2>Many thanks for participating!</h2><p>This experiment was about how whether someone makes a decision fast or slow influences people's judgements of the morality of their decisions.</p><h1>Press continue to be redirected to Prolific. </h1>,149687,25,html-button-response,
69,critcher,0.0-0.0,,,0,8623,,"<p> By answering the following questions, you are participating in a study being performed as part of a class by cognitive scientists in the Stanford Department of Psychology. If you have questions about this research, please contact us at vero.boyce@gmail.com. You must be at least 18 years old to participate. Your participation in this research is voluntary. You may decline to answer any or all of the following questions. You may decline further participation, at any time, without adverse consequences. Your anonymity is assured; the researchers who have requested your participation will not receive any information about you other than what you provide here.</p>",8625,0,html-button-response,
69,critcher,0.0-1.0,,,0,6283,,"<p> In this experiment, you will read a story about two different individuals. You will then be asked to evaluate their moral character and personality. </p><p>Please read the following story carefully. </p>",14908,1,html-button-response,
69,critcher,0.0-2.0-0.0,,immoral,0,40525,,"<p>Justin and Nate were walking to separate cars in the parking lot of Andronico's, a local grocery store, where they each spotted a different lost wallet next to the cars. Upon picking up the wallet and looking inside, each found several hundred dollars in cash. Each man considered whether he should return the wallet and money to the Customer Service desk at Andronico's, or pocket the money and drive away.</p>  <p> Justin saw his decision as an easy one and was <i> able to decide quickly. He pocketed the money and drove off. </i></p><p> In contrast, Nate saw his decision as difficult and <i> was only able to decide after long and careful deliberation</i>. After several minutes of thinking in his car, <i> he too decided to pocket the money and drive off.</i></p>",55435,2,html-button-response,
69,critcher,0.0-3.0-0.0,,manipulation_check_justin,7,22464,4,<p>How quickly did Justin make his decision?</p><br>,77901,3,html-slider-response,
69,critcher,0.0-3.0-0.1,,manipulation_check_nate,1,2542,4,<p>How quickly did Nate make his decision?</p><br>,80444,4,html-slider-response,
69,critcher,0.0-4.0-0.0,justin-conflicted,immoral,6,10030,4,<p>Justin was able to decide quickly. He decided to pocket the money and drive off. </p><br><p>Do you think Justin felt conflicted when making his decision?</p><br>,90475,5,html-slider-response,
69,critcher,0.0-4.0-0.1,justin-reservations,immoral,2,7860,4,<p>Justin was able to decide quickly. He decided to pocket the money and drive off. </p><br><p>Do you think Justin had reservations when making his decision?</p><br>,98336,6,html-slider-response,
69,critcher,0.0-4.0-0.2,justin-certain,immoral,1,5223,4,<p>Justin was able to decide quickly. He decided to pocket the money and drive off. </p><br><p>Do you think Justin felt certain in his decision?</p><br>,103560,7,html-slider-response,
69,critcher,0.0-4.0-0.3,justin-far,immoral,4,13258,4,<p>Justin was able to decide quickly. He decided to pocket the money and drive off. </p><br><p>How far do you think Justin was from choosing the alternate course of action?</p><br>,116818,8,html-slider-response,
69,critcher,0.0-4.0-0.4,justin-principles,immoral,4,5748,4,<p>Justin was able to decide quickly. He decided to pocket the money and drive off. </p><br><p>Do you think Justin has good or bad moral principles?</p><br>,122567,9,html-slider-response,
69,critcher,0.0-4.0-0.5,justin-deep,immoral,4,9465,4,<p>Justin was able to decide quickly. He decided to pocket the money and drive off. </p><br><p>Do you think deep down Justin has the moral principles and knowledge to do the right thing?</p><br>,132033,10,html-slider-response,
69,critcher,0.0-4.0-0.6,justin-standards,immoral,4,6187,4,<p>Justin was able to decide quickly. He decided to pocket the money and drive off. </p><br><p>Do you think Justin has good or bad moral standards?</p><br>,138221,11,html-slider-response,
69,critcher,0.0-4.0-0.7,justin-calm,immoral,6,5728,4,<p>Justin was able to decide quickly. He decided to pocket the money and drive off. </p><br><p>To what extent do you think Justin remained calm and emotionally contained when making his decision?</p><br>,143950,12,html-slider-response,
69,critcher,0.0-4.0-0.8,justin-upset,immoral,2,6437,4,<p>Justin was able to decide quickly. He decided to pocket the money and drive off. </p><br><p>To what extent do you think Justin became upset and acted without thinking?</p><br>,150388,13,html-slider-response,
69,critcher,0.0-4.0-0.9,nate-conflicted,immoral,3,6079,4,<p>Nate was only able to decide after thinking for a long time. He decided to pocket the money and drive off. </p><br><p>Do you think Nate felt conflicted when making his decision?</p><br>,156467,14,html-slider-response,
69,critcher,0.0-4.0-0.10,nate-reservations,immoral,5,3890,4,<p>Nate was only able to decide after thinking for a long time. He decided to pocket the money and drive off. </p><br><p>Do you think Nate had reservations when making his decision?</p><br>,160358,15,html-slider-response,
69,critcher,0.0-4.0-0.11,nate-certain,immoral,1,6090,4,<p>Nate was only able to decide after thinking for a long time. He decided to pocket the money and drive off. </p><br><p>Do you think Nate felt certain in his decision?</p><br>,166448,16,html-slider-response,
69,critcher,0.0-4.0-0.12,nate-far,immoral,4,5536,4,<p>Nate was only able to decide after thinking for a long time. He decided to pocket the money and drive off. </p><br><p>How far do you think Nate was from choosing the alternate course of action?</p><br>,171986,17,html-slider-response,
69,critcher,0.0-4.0-0.13,nate-principles,immoral,4,4711,4,<p>Nate was only able to decide after thinking for a long time. He decided to pocket the money and drive off. </p><br><p>Do you think Nate has good or bad moral principles?</p><br>,176698,18,html-slider-response,
69,critcher,0.0-4.0-0.14,nate-deep,immoral,4,6041,4,<p>Nate was only able to decide after thinking for a long time. He decided to pocket the money and drive off. </p><br><p>Do you think deep down Nate has the moral principles and knowledge to do the right thing?</p><br>,182739,19,html-slider-response,
69,critcher,0.0-4.0-0.15,nate-standards,immoral,4,3918,4,<p>Nate was only able to decide after thinking for a long time. He decided to pocket the money and drive off. </p><br><p>Do you think Nate has good or bad moral standards?</p><br>,186659,20,html-slider-response,
69,critcher,0.0-4.0-0.16,nate-calm,immoral,2,8106,4,<p>Nate was only able to decide after thinking for a long time. He decided to pocket the money and drive off. </p><br><p>To what extent do you think Nate remained calm and emotionally contained when making his decision?</p><br>,194766,21,html-slider-response,
69,critcher,0.0-4.0-0.17,nate-upset,immoral,3,6014,4,<p>Nate was only able to decide after thinking for a long time. He decided to pocket the money and drive off. </p><br><p>To what extent do you think Nate became upset and acted without thinking?</p><br>,200780,22,html-slider-response,
69,critcher,0.0-5.0-0.0,,manipulation_check_justin,7,4077,4,<p>How quickly did Justin make his decision?</p><br>,204857,23,html-slider-response,
69,critcher,0.0-5.0-0.1,,manipulation_check_nate,1,2179,4,<p>How quickly did Nate make his decision?</p><br>,207038,24,html-slider-response,
69,critcher,0.0-6.0,,,0,3343,,<h1>End of the experiment.</h1><h2>Many thanks for participating!</h2><p>This experiment was about how whether someone makes a decision fast or slow influences people's judgements of the morality of their decisions.</p><h1>Press continue to be redirected to Prolific. </h1>,210382,25,html-button-response,
94,critcher,0.0-0.0,,,0,2974,,"<p> By answering the following questions, you are participating in a study being performed as part of a class by cognitive scientists in the Stanford Department of Psychology. If you have questions about this research, please contact us at vero.boyce@gmail.com. You must be at least 18 years old to participate. Your participation in this research is voluntary. You may decline to answer any or all of the following questions. You may decline further participation, at any time, without adverse consequences. Your anonymity is assured; the researchers who have requested your participation will not receive any information about you other than what you provide here.</p>",2980,0,html-button-response,
94,critcher,0.0-1.0,,,0,1747,,"<p> In this experiment, you will read a story about two different individuals. You will then be asked to evaluate their moral character and personality. </p><p>Please read the following story carefully. </p>",4729,1,html-button-response,
94,critcher,0.0-2.0-0.0,,moral,0,54673,,"<p>Justin and Nate were walking to separate cars in the parking lot of Andronico's, a local grocery store, where they each spotted a different lost wallet next to the cars. Upon picking up the wallet and looking inside, each found several hundred dollars in cash. Each man considered whether he should return the wallet and money to the Customer Service desk at Andronico's, or pocket the money and drive away.</p> <p> Justin saw his decision as an easy one and was <i> able to decide quickly. He did not steal the money </i> and instead left the wallet with Customer Service.</p><p> In contrast, Nate saw his decision as difficult and <i> was only able to decide after long and careful deliberation</i>. After several minutes of thinking in his car, <i> he too decided not to steal the money </i> and instead left the wallet with customer service. </i><br> </p> ",59405,2,html-button-response,
94,critcher,0.0-3.0-0.0,,manipulation_check_justin,7,8742,4,<p>How quickly did Justin make his decision?</p><br>,68155,3,html-slider-response,
94,critcher,0.0-3.0-0.1,,manipulation_check_nate,1,5482,4,<p>How quickly did Nate make his decision?</p><br>,73644,4,html-slider-response,
94,critcher,0.0-4.0-0.0,justin-conflicted,moral,7,9785,4,<p>Justin was able to decide quickly. He decided not to steal the money. </p><br><p>Do you think Justin felt conflicted when making his decision?</p><br>,83433,5,html-slider-response,
94,critcher,0.0-4.0-0.1,justin-reservations,moral,2,7468,4,<p>Justin was able to decide quickly. He decided not to steal the money. </p><br><p>Do you think Justin had reservations when making his decision?</p><br>,90904,6,html-slider-response,
94,critcher,0.0-4.0-0.2,justin-certain,moral,2,9154,4,<p>Justin was able to decide quickly. He decided not to steal the money. </p><br><p>Do you think Justin felt certain in his decision?</p><br>,100063,7,html-slider-response,
94,critcher,0.0-4.0-0.3,justin-far,moral,3,7140,4,<p>Justin was able to decide quickly. He decided not to steal the money. </p><br><p>How far do you think Justin was from choosing the alternate course of action?</p><br>,107209,8,html-slider-response,
94,critcher,0.0-4.0-0.4,justin-principles,moral,6,6696,4,<p>Justin was able to decide quickly. He decided not to steal the money. </p><br><p>Do you think Justin has good or bad moral principles?</p><br>,113910,9,html-slider-response,
94,critcher,0.0-4.0-0.5,justin-deep,moral,5,10155,4,<p>Justin was able to decide quickly. He decided not to steal the money. </p><br><p>Do you think deep down Justin has the moral principles and knowledge to do the right thing?</p><br>,124068,10,html-slider-response,
94,critcher,0.0-4.0-0.6,justin-standards,moral,5,4287,4,<p>Justin was able to decide quickly. He decided not to steal the money. </p><br><p>Do you think Justin has good or bad moral standards?</p><br>,128358,11,html-slider-response,
94,critcher,0.0-4.0-0.7,justin-calm,moral,5,5447,4,<p>Justin was able to decide quickly. He decided not to steal the money. </p><br><p>To what extent do you think Justin remained calm and emotionally contained when making his decision?</p><br>,133810,12,html-slider-response,
94,critcher,0.0-4.0-0.8,justin-upset,moral,3,6290,4,<p>Justin was able to decide quickly. He decided not to steal the money. </p><br><p>To what extent do you think Justin became upset and acted without thinking?</p><br>,140105,13,html-slider-response,
94,critcher,0.0-4.0-0.9,nate-conflicted,moral,1,6138,4,<p>Nate was only able to decide after thinking for a long time. He decided not to steal the money. </p><br><p>Do you think Nate felt conflicted when making his decision?</p><br>,146249,14,html-slider-response,
94,critcher,0.0-4.0-0.10,nate-reservations,moral,5,28772,4,<p>Nate was only able to decide after thinking for a long time. He decided not to steal the money. </p><br><p>Do you think Nate had reservations when making his decision?</p><br>,175027,15,html-slider-response,
94,critcher,0.0-4.0-0.11,nate-certain,moral,6,7103,4,<p>Nate was only able to decide after thinking for a long time. He decided not to steal the money. </p><br><p>Do you think Nate felt certain in his decision?</p><br>,182135,16,html-slider-response,
94,critcher,0.0-4.0-0.12,nate-far,moral,2,42011,4,<p>Nate was only able to decide after thinking for a long time. He decided not to steal the money. </p><br><p>How far do you think Nate was from choosing the alternate course of action?</p><br>,224152,17,html-slider-response,
94,critcher,0.0-4.0-0.13,nate-principles,moral,3,7431,4,<p>Nate was only able to decide after thinking for a long time. He decided not to steal the money. </p><br><p>Do you think Nate has good or bad moral principles?</p><br>,231588,18,html-slider-response,
94,critcher,0.0-4.0-0.14,nate-deep,moral,5,7320,4,<p>Nate was only able to decide after thinking for a long time. He decided not to steal the money. </p><br><p>Do you think deep down Nate has the moral principles and knowledge to do the right thing?</p><br>,238914,19,html-slider-response,
94,critcher,0.0-4.0-0.15,nate-standards,moral,3,5260,4,<p>Nate was only able to decide after thinking for a long time. He decided not to steal the money. </p><br><p>Do you think Nate has good or bad moral standards?</p><br>,244178,20,html-slider-response,
94,critcher,0.0-4.0-0.16,nate-calm,moral,2,9661,4,<p>Nate was only able to decide after thinking for a long time. He decided not to steal the money. </p><br><p>To what extent do you think Nate remained calm and emotionally contained when making his decision?</p><br>,253844,21,html-slider-response,
94,critcher,0.0-4.0-0.17,nate-upset,moral,6,6522,4,<p>Nate was only able to decide after thinking for a long time. He decided not to steal the money. </p><br><p>To what extent do you think Nate became upset and acted without thinking?</p><br>,260372,22,html-slider-response,
94,critcher,0.0-5.0-0.0,,manipulation_check_justin,6,5944,4,<p>How quickly did Justin make his decision?</p><br>,266321,23,html-slider-response,
94,critcher,0.0-5.0-0.1,,manipulation_check_nate,2,3329,4,<p>How quickly did Nate make his decision?</p><br>,269653,24,html-slider-response,
94,critcher,0.0-6.0,,,0,7668,,<h1>End of the experiment.</h1><h2>Many thanks for participating!</h2><p>This experiment was about how whether someone makes a decision fast or slow influences people's judgements of the morality of their decisions.</p><h1>Press continue to be redirected to Prolific. </h1>,277326,25,html-button-response,
77,critcher,0.0-0.0,,,0,13561,,"<p> By answering the following questions, you are participating in a study being performed as part of a class by cognitive scientists in the Stanford Department of Psychology. If you have questions about this research, please contact us at vero.boyce@gmail.com. You must be at least 18 years old to participate. Your participation in this research is voluntary. You may decline to answer any or all of the following questions. You may decline further participation, at any time, without adverse consequences. Your anonymity is assured; the researchers who have requested your participation will not receive any information about you other than what you provide here.</p>",13562,0,html-button-response,
77,critcher,0.0-1.0,,,0,17558,,"<p> In this experiment, you will read a story about two different individuals. You will then be asked to evaluate their moral character and personality. </p><p>Please read the following story carefully. </p>",31122,1,html-button-response,
